t_global,t_local,accX,accY,accZ,gyroX,gyroY,gyroZ,gravX,gravY,gravZ,qx,qy,qz,qw
0.5895059999966179,0.5821242916645133,0.00012624828377738595,-0.001784709864296019,0.0006833349470980465,0.04078768566250801,-0.00013661939010489732,-0.021735312417149544,-0.170848548412323,0.6184133291244507,-0.7670565247535706,-0.3289566172729481,-0.09088057760863871,1.523140748622826e-17,0.9399618640497772
0.5898439166630851,0.5824624583328841,-0.0002119650598615408,-0.0023498099762946367,-0.0013019078178331256,0.03760511428117752,-0.005203138571232557,-0.018701812252402306,-0.17098015546798706,0.6180830001831055,-0.7672934532165527,-0.3287663475126563,-0.09091735910458158,-7.756435025948325e-05,0.9400249071774667
0.606518041662639,0.5991366250018473,-0.0012421372812241316,-0.008640113286674023,-0.005897740367799997,0.0282297246158123,-0.007953920401632786,-0.006146226078271866,-0.17147797346115112,0.6171581149101257,-0.7679265141487122,-0.32823158811239983,-0.09110858625987288,-0.00024166057900248426,0.9401931483199067
0.6381826666693087,0.6308010833308799,-0.0014094983926042914,-0.014128060080111027,-0.008942452259361744,0.026652544736862183,-0.008768878877162933,-0.00584817910566926,-0.17117717862129211,0.6168884634971619,-0.768210232257843,-0.3280522357418552,-0.09097598775035323,-0.00014245105103422183,0.9402685657712513
0.6382407916680677,0.6308594583315426,-0.0015767149161547422,-0.01961580105125904,-0.011987418867647648,0.025075364857912064,-0.00958383921533823,-0.005550133064389229,-0.17087648808956146,0.616618812084198,-0.76849365234375,-0.3278729159625491,-0.090843441323168,-4.3200172925337406e-05,0.9403440261513695
0.6725280000027851,0.6651464166643564,-0.0017989968182519078,-0.0165360476821661,-0.010600394569337368,0.016620321199297905,-0.006888946983963251,-0.003930764738470316,-0.17122532427310944,0.616348385810852,-0.7686328887939453,-0.32772103116588286,-0.09100812695908193,-9.26221915704723e-05,0.9403809549333919
0.7028281666644034,0.6954463750007562,-0.006026835646480322,-0.00415776064619422,-0.00653328699991107,-0.021467512473464012,-0.020173903554677963,0.004626055248081684,-0.1718830019235611,0.6143090128898621,-0.7701172828674316,-0.32650995715161946,-0.09128305209870197,-0.00019798017663531987,0.9407755685726644
0.7029123333340976,0.6955309583354392,-0.00931461714208126,-0.00020035263150930405,-0.003565456485375762,-0.035153649747371674,-0.0242124292999506,0.012818781659007072,-0.1721843183040619,0.6134680509567261,-0.7707201838493347,-0.3260069284094808,-0.09142978126259393,-0.00019204443449674335,0.9409357815650266
0.7374569166640867,0.7300754999960191,-0.01254211738705635,-0.0003633397282101214,-0.0020872587338089943,-0.034277062863111496,-0.03881405293941498,0.021153656765818596,-0.1728571206331253,0.6108198165893555,-0.7726703882217407,-0.3244020373551038,-0.09180476965110296,4.260646681318598e-06,0.9414537824684212
0.7375555833350518,0.7301741666669841,-0.012667867355048656,-0.0007957753259688616,-0.006235472857952118,-0.02503742091357708,-0.03613671660423279,0.020594071596860886,-0.17313773930072784,0.6101425290107727,-0.7731425762176514,-0.3239851129658521,-0.09199111283849568,0.000148271932152905,0.9415791487944813
0.8071243333324674,0.7997424166678684,-0.01708204485476017,0.002276431303471327,-0.0017629279755055904,-0.024247504770755768,-0.026032427325844765,0.02053099498152733,-0.17368802428245544,0.6102442741394043,-0.7729387879371643,-0.3240518181535258,-0.09230935037990434,0.0002084283837767985,0.9415250113762599
0.8073932499974035,0.8000117083356599,-0.021495981141924858,0.0053487359546124935,0.0027091368101537228,-0.023457590490579605,-0.01592813991010189,0.02046792022883892,-0.1742384284734726,0.6103461980819702,-0.7727344632148743,-0.32411862032559874,-0.09262770202885817,0.0002685864140332195,0.9414707896791238
0.8076937916630413,0.8003123333328404,-0.02591034024953842,0.008421065285801888,0.007180937100201845,-0.022667676210403442,-0.005823849234730005,0.020404843613505363,-0.1747884452342987,0.6104477643966675,-0.7725299596786499,-0.32418527224696403,-0.09294590895231877,0.00032874760155614333,0.9414163994241588
0.8429923333314946,0.8356106666687992,-0.027904126793146133,0.0018624813528731465,-0.0058734179474413395,-0.02724687196314335,0.008652819320559502,0.01025347225368023,-0.1756492555141449,0.6105404496192932,-0.772261381149292,-0.32426372695077155,-0.0933934980139219,0.00028025692053205346,0.941345093557373
0.8435588333304622,0.8361772916687187,-0.02989807166159153,-0.004695721436291933,-0.0189285259693861,-0.031826067715883255,0.02312948741018772,0.00010210036271018907,-0.17650972306728363,0.6106327176094055,-0.7719922065734863,-0.324342053657575,-0.09384100516455963,0.00023185367568881267,0.9412736207113911
0.8576394166666432,0.8502577916660812,-0.025963759049773216,-0.02197372354567051,-0.031180858612060547,-0.020041504874825478,0.12025253474712372,-0.04179062694311142,-0.17715083062648773,0.610973596572876,-0.7715755105018616,-0.3246308424273387,-0.09395243686494373,-0.00046477740432455505,0.941162816389807
0.8802424166642595,0.8728610833350103,-0.025166112929582596,-0.03723088651895523,-0.02844921313226223,-0.002840278437361121,0.16706210374832153,-0.08611364662647247,-0.17743732035160065,0.611295759677887,-0.7712544798851013,-0.3249537516013954,-0.09369010118036677,-0.001689926443064691,0.94107613084395
0.9319302916628658,0.9245484583298094,-0.017921101301908493,-0.047811612486839294,-0.04048846289515495,-0.013491207733750343,0.22607775032520294,-0.1479002684354782,-0.17862479388713837,0.6111164093017578,-0.7711225152015686,-0.3251720874260793,-0.09328377573728036,-0.004703613267787736,0.9410308943418945
0.9321247083353228,0.9247431666663033,-0.01455606333911419,-0.053325504064559937,-0.04261993244290352,-0.02531571313738823,0.23477573692798615,-0.16379119455814362,-0.17877547442913055,0.6105948686599731,-0.7715006470680237,-0.3249835555389846,-0.09292666705751763,-0.0059454995766517775,0.9411243575985052
0.9628529583351337,0.9554711666642106,-0.002017275197431445,-0.0721251517534256,-0.03443480283021927,-0.08005063980817795,0.29001712799072266,-0.1970827579498291,-0.1783430129289627,0.6082977652549744,-0.7734129428863525,-0.32401451660427383,-0.09114892100048447,-0.01032734082513704,0.9415942908933265
0.9631159999989904,0.9557343749984284,-0.0011495945509523153,-0.0771300196647644,-0.02952665649354458,-0.11189663410186768,0.2978312373161316,-0.2086973786354065,-0.17797324061393738,0.6073608994483948,-0.7742339968681335,-0.3236481431045735,-0.09019356029288779,-0.012493782807142237,0.9417860653343627
0.9921486666644341,0.9847669166629203,0.001793067087419331,-0.07948531955480576,-0.020837673917412758,-0.15153931081295013,0.30024635791778564,-0.2139396220445633,-0.1773347109556198,0.6066813468933105,-0.77491295337677,-0.3234421890051772,-0.08904304518683585,-0.014824366151168855,0.9419324423765189
1.0310875833311002,1.0237059999999474,0.014740148559212685,-0.07307524234056473,-0.012788663618266582,-0.2836402356624603,0.31420204043388367,-0.2334185689687729,-0.17559219896793365,0.6060727834701538,-0.775785505771637,-0.32357092593093206,-0.08607621050032158,-0.020730527759815865,0.9420525239167694
1.031141083331022,1.0237597500017728,0.021633870899677277,-0.0634976178407669,-0.01577204465866089,-0.3421264588832855,0.3196333646774292,-0.24766086041927338,-0.17476752400398254,0.606762170791626,-0.7754327654838562,-0.32413751078218,-0.08496166247555773,-0.022697835800798264,0.941913618747128
1.0544642083332292,1.0470825000011246,0.0340067557990551,-0.024142181500792503,-0.016014067456126213,-0.5567246079444885,0.3888620138168335,-0.27623504400253296,-0.17156358063220978,0.6116860508918762,-0.7722733616828918,-0.3275737951301306,-0.08098599481193774,-0.029253191601244073,0.9408937034607034
1.1181031666637864,1.1107214166622725,0.03094608709216118,-0.012708564288914204,-0.006495132576674223,-0.5928665399551392,0.3660319745540619,-0.2811567485332489,-0.17000268399715424,0.6165425777435303,-0.7687485814094543,-0.33072211294879744,-0.07904813515573068,-0.03237648930794199,0.9398542716019803
1.1184934166667517,1.1111119166671415,0.027924425899982452,-0.0012557359877973795,0.002980588935315609,-0.6290083527565002,0.3432018756866455,-0.28607845306396484,-0.16848084330558777,0.6213799118995667,-0.7651804685592651,-0.33386234266535214,-0.07710831928604299,-0.0354989760033904,0.9387917965639814
1.1188929583295248,1.111511374998372,0.024941878393292427,0.010216794908046722,0.01241342630237341,-0.6651502251625061,0.3203718066215515,-0.2910001575946808,-0.16699828207492828,0.6261976361274719,-0.7615694999694824,-0.33699440157951294,-0.07516663306042252,-0.03862056898730754,0.9377063642042536
1.119355541668483,1.1119739999994636,0.021999092772603035,0.021709416061639786,0.021803703159093857,-0.701292097568512,0.2975417375564575,-0.29592186212539673,-0.1655552238225937,0.6309952139854431,-0.7579159140586853,-0.3401182491304559,-0.07322316154710022,-0.04174122533091986,0.9365979331726559
1.16113366666832,1.1537522500002524,0.026054134592413902,0.04202703759074211,0.03078533336520195,-0.6117862462997437,0.27470144629478455,-0.2887255549430847,-0.1630556583404541,0.6410256624221802,-0.7499992847442627,-0.3466210313559115,-0.069672173208153,-0.04742734434167138,0.9342110924705714
1.1612763333323528,1.1538948750021518,0.02900131233036518,0.04774579405784607,0.03132881596684456,-0.5705080628395081,0.267225980758667,-0.28049972653388977,-0.16244739294052124,0.6447937488555908,-0.7468947768211365,-0.3490872014779312,-0.06848894232717455,-0.04957253635330741,0.93326838844953
1.1754174166635494,1.1680357083314448,0.009065654128789902,0.04801102355122566,0.049266163259744644,-0.38094863295555115,0.17363058030605316,-0.2257469743490219,-0.16114039719104767,0.6578559279441833,-0.7357032895088196,-0.35771793079613795,-0.06470114013194876,-0.05705247957533953,0.9298369201936605
1.2180404583341442,1.2106589999966673,0.008996434509754181,0.04560442641377449,0.043905604630708694,-0.3506726622581482,0.14002390205860138,-0.20879852771759033,-0.16117733716964722,0.6601389646530151,-0.7336472868919373,-0.3592414804561388,-0.06420211894153328,-0.058265840093636175,0.929208646990057
1.2181562916666735,1.2107748333291966,0.008934480138123035,0.043205082416534424,0.0385371595621109,-0.32039669156074524,0.1064172238111496,-0.19185008108615875,-0.16122151911258698,0.6624148488044739,-0.7315833568572998,-0.3607634543041625,-0.06370280057235163,-0.05947899920849159,0.9285763729059623
1.2558825833330047,1.2485007916620816,0.024535194039344788,0.022674456238746643,0.0282881036400795,-0.27644526958465576,0.06103862449526787,-0.14466911554336548,-0.16117070615291595,0.6694251894950867,-0.7251853942871094,-0.3653865604283129,-0.06244971272540043,-0.062166267713479405,0.9266757614025818
1.2565172083341167,1.2491357083345065,0.028099648654460907,0.014868542551994324,0.028098154813051224,-0.2693439722061157,0.052419986575841904,-0.13117265701293945,-0.16114044189453125,0.6719986796379089,-0.7228080630302429,-0.36707716217120956,-0.062051124907918684,-0.06296251987132566,0.9259803929904322
1.300781708334398,1.293400083333836,0.0252497810870409,-0.0013697391841560602,0.043397095054388046,-0.27268680930137634,0.006214288994669914,-0.07799556851387024,-0.16181789338588715,0.6788236498832703,-0.7162495255470276,-0.3715909944984245,-0.06160655775700651,-0.06452882167826214,0.9240999774422336
1.3008684583328431,1.2934870416647755,0.02041664347052574,-0.0007809860398992896,0.05011611431837082,-0.2763102948665619,-0.031247075647115707,-0.06169724091887474,-0.1621469408273697,0.6809804439544678,-0.7141246795654297,-0.3730231508033051,-0.06157435729105047,-0.06490112476676303,0.9234989240834734
1.3229714166664053,1.3155896249954822,0.011215999722480774,-0.0008191503002308309,0.03831253945827484,-0.3326908349990845,-0.17317251861095428,0.04307134822010994,-0.16366422176361084,0.6894701719284058,-0.7055813074111938,-0.37857337932805457,-0.06238232890835229,-0.06435788173511725,0.9212213467403435
1.3363897500021267,1.3290079166690703,0.009499610401690006,0.02440027706325054,0.015549425967037678,-0.38804757595062256,-0.2149103581905365,0.10498914122581482,-0.16504377126693726,0.6964075565338135,-0.6984104514122009,-0.3830658159130824,-0.06368176736261574,-0.06258229665101346,0.9193958561804826
1.3665016666636802,1.3591199583315756,0.009336238726973534,0.04451024532318115,0.009660481475293636,-0.43103933334350586,-0.22159947454929352,0.1336202472448349,-0.16558393836021423,0.7008774280548096,-0.6937960386276245,-0.38594609854377016,-0.06440188443794571,-0.061294598539496294,0.9182271796964511
1.4449474583307165,1.4375657916680211,0.0063251955434679985,0.04616900160908699,0.009369752369821072,-0.4183947741985321,-0.22363241016864777,0.15963266789913177,-0.16548921167850494,0.7079141736030579,-0.6866374611854553,-0.3904248541743194,-0.06518979503886953,-0.05891681891557465,0.9164320647483146
1.4453145416628104,1.4379330833326094,0.0032558562234044075,0.04789438843727112,0.009015168994665146,-0.40575021505355835,-0.22566534578800201,0.18564507365226746,-0.1653362512588501,0.7148841023445129,-0.6794149279594421,-0.39489206468863985,-0.0659757298713388,-0.05653718093054661,0.9146097529689071
1.4456934999980149,1.438312041667814,0.00012881559086963534,0.049687355756759644,0.00859738141298294,-0.3931056559085846,-0.22769825160503387,0.21165747940540314,-0.16512547433376312,0.7217865586280823,-0.672129213809967,-0.39934761637384336,-0.06675980698948147,-0.054155899228280666,0.912760451108932
1.446058791669202,1.4386773750011344,-0.0030561964958906174,0.05154864862561226,0.008117356337606907,-0.3804611265659332,-0.22973117232322693,0.2376699149608612,-0.1648567169904709,0.728620707988739,-0.6647811532020569,-0.4037914122455306,-0.06754191228575217,-0.05177301673755009,0.9108842005185303
1.4883744999970077,1.4809925833324087,-0.003536731004714966,0.039073117077350616,0.007074488326907158,-0.29277101159095764,-0.21451258659362793,0.2579568326473236,-0.16360993683338165,0.7376665472984314,-0.6550418734550476,-0.40958646553206046,-0.06868764322173056,-0.04737920038174232,0.9084471530680606
1.4889634999999544,1.4815819583309349,-0.004106549080461264,0.030013572424650192,0.013896629214286804,-0.26229622960090637,-0.20872431993484497,0.2599259316921234,-0.16290788352489471,0.7403320074081421,-0.6522035598754883,-0.41125124274750363,-0.069069708763227,-0.04560586115997765,0.9077565390947054
1.5221508749964414,1.514769208333746,-0.006310027092695236,0.004986082203686237,0.036300890147686005,-0.23026439547538757,-0.1935025155544281,0.27537429332733154,-0.1607462763786316,0.7467183470726013,-0.6454241275787354,-0.4152112676206596,-0.06991097592189281,-0.04100633514467919,0.90610732939268
1.5224242083349964,1.5150427499975194,-0.0035705638583749533,-0.009134353138506413,0.04014461860060692,-0.24232831597328186,-0.19324932992458344,0.27532142400741577,-0.1598261296749115,0.7494235038757324,-0.642510712146759,-0.4168931673825405,-0.07031878260057912,-0.03897144896825469,0.9053930338934715
1.5535813333335682,1.5461999166655005,0.002910654991865158,-0.014967137016355991,0.04657851159572601,-0.26360270380973816,-0.17947429418563843,0.27029547095298767,-0.1588396430015564,0.7521608471870422,-0.6395498514175415,-0.41861003329964414,-0.07064496656574411,-0.03705226786347465,0.9046557890752672
1.5733374583360273,1.565955791666056,0.01459446270018816,-0.01661042869091034,0.07161836326122284,-0.3382415175437927,-0.16992339491844177,0.24473099410533905,-0.15621593594551086,0.7596473693847656,-0.6312942504882812,-0.42339623050448255,-0.07133386274346107,-0.03241788116659479,0.9025497745186427
1.5936805833334802,1.5862990416644607,0.013889229856431484,0.0027484085876494646,0.06659439206123352,-0.4102703034877777,-0.1954023540019989,0.2262895703315735,-0.15555232763290405,0.7656590938568115,-0.6241551041603088,-0.427445511909979,-0.07219961473577559,-0.029825739732956588,0.9006597387862699
1.6284960416669492,1.6211143749969779,0.011003836058080196,0.018286999315023422,0.06197447329759598,-0.4546523094177246,-0.22322876751422882,0.2168603241443634,-0.1552702784538269,0.7702478766441345,-0.6185541749000549,-0.43058708596311823,-0.07292245692655745,-0.028022353530081694,0.8991616751162228
1.6285528750013327,1.6211715416648076,0.0080866739153862,0.03386377543210983,0.05732514336705208,-0.49903425574302673,-0.25105515122413635,0.20743106305599213,-0.15495625138282776,0.774798572063446,-0.6129238605499268,-0.43372183041978773,-0.07364414133846355,-0.02621844770147586,0.8976493730455152
1.660250333334261,1.6528686250021565,0.01200347300618887,0.06375405937433243,0.01954890415072441,-0.559410572052002,-0.2786855399608612,0.19593031704425812,-0.15499383211135864,0.7861891984939575,-0.5982336401939392,-0.44173596836209406,-0.07584541277599723,-0.021996638350905307,0.8936626753568534
1.6603507499967236,1.6529692916665226,0.010770710185170174,0.06967538595199585,0.008978338912129402,-0.557159960269928,-0.2444443255662918,0.19937095046043396,-0.15494364500045776,0.7913118004798889,-0.5914542078971863,-0.4453996649189107,-0.07675955079486921,-0.020245248749048456,0.8918056217589994
1.7235113333299523,1.7161296249978477,0.001032104599289596,0.05915334075689316,0.020370976999402046,-0.4885183870792389,-0.24727484583854675,0.19583524763584137,-0.15421433746814728,0.7971899509429932,-0.58370041847229,-0.4495823055609154,-0.07762440668813224,-0.017897314065856363,0.8896796692969774
1.7237640416642535,1.7163824583331007,-0.008761849254369736,0.04870401695370674,0.03171441704034805,-0.4198768734931946,-0.2501053512096405,0.19229952991008759,-0.1534295380115509,0.8029952645301819,-0.5758974552154541,-0.4537522148673491,-0.07848697179814691,-0.01554890737137634,0.887528517439504
1.7242907083345926,1.7169091249961639,-0.018611038103699684,0.03832799941301346,0.04300950467586517,-0.3512353301048279,-0.25293585658073425,0.1887638121843338,-0.15258966386318207,0.8087272644042969,-0.5680462121963501,-0.4579092687877887,-0.07934737491123468,-0.013200116101788612,0.8853523331657749
1.774134833329299,1.766753083335061,-0.019694307819008827,0.03150003403425217,0.05261135846376419,-0.27603933215141296,-0.21262779831886292,0.16991408169269562,-0.15148073434829712,0.815591037273407,-0.5584485530853271,-0.4628651742410877,-0.08081806748810376,-0.009513432645490188,0.8826854940269118
1.7744868750014575,1.767105333332438,-0.019167780876159668,0.03866163641214371,0.04596306383609772,-0.2747955322265625,-0.19278357923030853,0.160393625497818,-0.1513066291809082,0.8174241781234741,-0.5558092594146729,-0.4642025661343463,-0.08131014389110869,-0.008491965990813288,0.8819481271491029
1.8024594166636234,1.7950778333324706,-0.01909281127154827,0.04562316834926605,0.042355943471193314,-0.26966556906700134,-0.1053098663687706,0.14011935889720917,-0.1503305435180664,0.8229778409004211,-0.5478212237358093,-0.46830263222102514,-0.08235308845858001,-0.005806161628776452,0.8797027150837127
1.8113805416651303,1.8039992083358811,-0.0164114311337471,0.042791422456502914,0.04697296395897865,-0.2251729667186737,-0.05180211365222931,0.1258365958929062,-0.14913171529769897,0.8264485597610474,-0.5429019331932068,-0.47091476098099505,-0.08239129334903765,-0.004673322037080115,0.8783103761724679
1.8503966249991208,1.8430149166670162,-0.017438700422644615,0.04611071199178696,0.043997086584568024,-0.18656609952449799,-0.03650368005037308,0.11585521697998047,-0.14831335842609406,0.8283426761627197,-0.5402328968048096,-0.47234382005466474,-0.08230964074171385,-0.004076654517409839,0.8775533334814427
1.8505979166657198,1.8432164583355188,-0.01846992038190365,0.049439433962106705,0.04101578891277313,-0.14795921742916107,-0.02120523899793625,0.10587383806705475,-0.147490993142128,0.8302273154258728,-0.5375584363937378,-0.4737714623259644,-0.08222774067001216,-0.003480022339028606,0.8767936765654334
1.8837324999985867,1.8763508333358914,-0.026135407388210297,0.08992718905210495,-0.008194435387849808,-0.09806859493255615,-0.019571537151932716,0.0955301895737648,-0.14579738676548004,0.8336852788925171,-0.5326462388038635,-0.4763793552288615,-0.08209494191180351,-0.002168647771861777,0.8753962088003647
1.8842852083325852,1.876903708332975,-0.022697752341628075,0.09145590662956238,0.008678155951201916,-0.09608061611652374,0.001323146396316588,0.1172633171081543,-0.1448366343975067,0.8347610831260681,-0.5312215685844421,-0.47716451955984523,-0.08187323655064194,-0.0016347086928346685,0.8749904006015854
1.9150468750012806,1.9076652500007185,-0.01412304025143385,0.07893446087837219,0.0249236598610878,-0.078361876308918,-0.011660447344183922,0.11695126444101334,-0.1437208354473114,0.8357504606246948,-0.5299673676490784,-0.4778655359550598,-0.08161396715569752,-0.0010006303719082145,0.8746328799367576
1.9158938333348488,1.90851224999642,-0.005549847148358822,0.06641656905412674,0.04116782918572426,-0.06064313277602196,-0.024644043296575546,0.11663921922445297,-0.14260342717170715,0.8367364406585693,-0.5287119150161743,-0.47856604588747276,-0.08135466509309089,-0.0003665346860180491,0.8742744322038695
1.9519545000002836,1.9445728749997215,0.009329254738986492,0.048962950706481934,0.03788407891988754,-0.019765503704547882,0.020001469179987907,0.0703234151005745,-0.14063969254493713,0.8381328582763672,-0.527023434638977,-0.4795264131641999,-0.08088705925721464,0.0007477162485805809,0.8737912228763707
1.9744061666642665,1.9670242916690768,0.002184509299695492,0.02401018515229225,0.039434682577848434,0.013458470813930035,0.048227813094854355,0.026006527245044708,-0.13880029320716858,0.8388447165489197,-0.5263782143592834,-0.48000513385057664,-0.08003728380363193,0.0010852525763182465,0.8736062914951409
1.9745154583361,1.967133999998623,-0.003907428123056889,0.009668546728789806,0.036067575216293335,0.03557034954428673,0.04480189085006714,0.010687283240258694,-0.13813315331935883,0.8390516042709351,-0.5262238383293152,-0.4801534900748717,-0.07962851743040324,0.0010285810384079693,0.873562148343604
2.051505499999621,2.0441237916675163,-0.0008908595191314816,0.009883033111691475,0.026590559631586075,0.027865082025527954,0.07740636169910431,0.007035986520349979,-0.13744962215423584,0.8390317559242249,-0.5264344811439514,-0.4801305338805384,-0.07910397957138689,0.0007960628005781667,0.8736226684116553
2.05190654166654,2.0445250416669296,0.002125152386724949,0.010097582824528217,0.017112823203206062,0.02015981450676918,0.11001083999872208,0.003384683048352599,-0.1367657482624054,0.8390117883682251,-0.5266443490982056,-0.48010738608535675,-0.07857933991565061,0.000563507948507107,0.8736828927141894
2.0523113333329093,2.0449298749954323,0.005141189321875572,0.010312180034816265,0.007634286768734455,0.012454542331397533,0.14261531829833984,-0.0002666173386387527,-0.13608165085315704,0.8389917612075806,-0.5268534421920776,-0.4800841118718041,-0.07805470262786297,0.00033100076110893767,0.873742822829839
2.076412624999648,2.0690309583296767,0.010589621029794216,0.014682205393910408,0.02132704295217991,-0.003060829360038042,0.17280180752277374,-0.009019146673381329,-0.1349412500858307,0.8391899466514587,-0.5268310904502869,-0.4802530943379829,-0.0770806198286038,-0.0002550344260687277,0.8737364405882627
2.076477916663862,2.069096499995794,0.016038239002227783,0.0190521702170372,0.03501709923148155,-0.018576201051473618,0.20298831164836884,-0.017771689221262932,-0.13380101323127747,0.8393881916999817,-0.5268059968948364,-0.4804214860624461,-0.07610650594031465,-0.000841047512383624,0.8737288784418826
2.120574458334886,2.1131927916649147,0.012010601349174976,0.03277461230754852,0.04513418301939964,-0.020473845303058624,0.19416183233261108,-0.05790483206510544,-0.1318746656179428,0.8397954702377319,-0.5266427397727966,-0.4808519252460963,-0.07389213248564422,-0.0028686822904261076,0.8736779573591913
2.1207779999967897,2.113396416665637,0.007873925380408764,0.03875051066279411,0.042503464967012405,-0.00567392073571682,0.1765255331993103,-0.07240401208400726,-0.13145598769187927,0.8397535085678101,-0.526814341545105,-0.4808634525786724,-0.07323376238523881,-0.0036224232968502658,0.8737242038717375
2.154834374996426,2.1474527916652733,0.010775203816592693,0.038774389773607254,0.010368606075644493,0.09983594715595245,0.12369832396507263,-0.1295667588710785,-0.13152708113193512,0.8387184739112854,-0.528442919254303,-0.48021553874180395,-0.07191367690488282,-0.006035378182801766,0.8741767639741149
2.15503491666459,2.147653458334389,0.011210978031158447,0.037783183157444,0.0022542993538081646,0.1502337008714676,0.09749267250299454,-0.15262113511562347,-0.13188599050045013,0.838100016117096,-0.5293340086936951,-0.47980074024754915,-0.07158393857854664,-0.006978414964598112,0.8744245451626705
2.186228791666508,2.1788472083353554,0.007944561541080475,0.0653427243232727,-0.00822229590266943,0.23297227919101715,0.0852726399898529,-0.14158520102500916,-0.13422705233097076,0.8348709344863892,-0.5338291525840759,-0.47747457980272834,-0.07143851147115238,-0.009541725467998441,0.8756845777785753
2.2157975416630507,2.2084162083338015,0.011808337643742561,0.05339823290705681,0.0017085614381358027,0.27024152874946594,0.06684942543506622,-0.13706974685192108,-0.13508674502372742,0.8330543637275696,-0.5364438891410828,-0.47610381801200385,-0.07143678702806476,-0.010364636348215394,0.876421448389775
2.215858458330331,2.208477041662263,0.015666965395212173,0.04146300256252289,0.011634738184511662,0.3075107932090759,0.048426225781440735,-0.13255427777767181,-0.13594117760658264,0.8312283754348755,-0.5390541553497314,-0.47473149390410063,-0.0714349232318497,-0.011187495133540849,0.8771555377967938
2.2577559583296534,2.2503743333290913,0.013132333755493164,0.04345312714576721,0.01182992197573185,0.4245782196521759,0.03547584265470505,-0.10116732865571976,-0.13794878125190735,0.8251084685325623,-0.5478742122650146,-0.4700243229996584,-0.07169392357621439,-0.01257176258605224,0.8796471867916171
2.258065666668699,2.250684208331222,0.014218664728105068,0.04563715308904648,0.006664452143013477,0.4657750725746155,0.024615058675408363,-0.09012344479560852,-0.13856351375579834,0.8226392865180969,-0.5514206290245056,-0.46811552575828846,-0.07181598817387558,-0.012896454597257306,0.8806497295116583
2.3244265416651615,2.3170446250005625,0.024365250021219254,0.03021935373544693,0.009110434912145138,0.5450956225395203,0.038181331008672714,-0.03318740427494049,-0.13885366916656494,0.8140668272972107,-0.5639281272888184,-0.4614153173886603,-0.0716369468297403,-0.01319038126890397,0.8841889741506541
2.3248534166632453,2.3174718333320925,0.025486093014478683,0.013784151524305344,0.015972694382071495,0.5686699151992798,0.05152236297726631,-0.01243562065064907,-0.1383887529373169,0.8103103637695312,-0.5694258213043213,-0.45847828877560165,-0.07130751379013574,-0.013161560064404505,0.8857424762719182
2.3252727083308855,2.317891166669142,0.026602359488606453,-0.0026147314347326756,0.022809479385614395,0.5922442674636841,0.0648634135723114,0.008316162042319775,-0.1379188448190689,0.806517481803894,-0.5748982429504395,-0.4555361002051823,-0.07097716570013883,-0.013132597088609055,0.8872861591103199
2.333801583336026,2.3264200416670064,0.033184684813022614,-0.0284691471606493,-0.02417587675154209,0.5977698564529419,0.0015836477978155017,0.007772503420710564,-0.13679620623588562,0.7980206608772278,-0.5868985056877136,-0.4489851001160625,-0.07044947505045555,-0.012586070297711135,0.8906688197889322
2.3738170833312324,2.3664354583306704,0.0475863516330719,-0.03276894614100456,-0.0474591888487339,0.49942806363105774,0.08584371954202652,0.0015668637352064252,-0.13521450757980347,0.7895771265029907,-0.5985691547393799,-0.4425669640219001,-0.06964126741469091,-0.012092567732417939,0.8939453967436768
2.3739239999995334,2.3665425833314657,0.04574299231171608,-0.03409729525446892,-0.029531624168157578,0.4642041325569153,0.1168755292892456,-0.003167618066072464,-0.1342531144618988,0.7867071032524109,-0.602551281452179,-0.44040268015988837,-0.06906397308916425,-0.012057695738858667,0.8950588376100509
2.41948595832946,2.4121042499973555,0.04377317428588867,-0.03745191916823387,-0.0005770234856754541,0.3778526484966278,0.08265026658773422,-0.05136086419224739,-0.1324140876531601,0.779952883720398,-0.6116698980331421,-0.43540727086407527,-0.06771677361951552,-0.012458906275489736,0.8975966799468712
2.420305041669053,2.4129235000000335,0.04543706029653549,-0.033782098442316055,0.002304385183379054,0.34669482707977295,0.07096678763628006,-0.0718044638633728,-0.13219186663627625,0.7779107093811035,-0.6143128871917725,-0.43392888906854726,-0.0674483527982452,-0.012686646336429816,0.8983293124373024
2.457003875002556,2.449622083331633,0.03205307945609093,-0.010766073130071163,0.028307758271694183,0.3352193534374237,0.011327249929308891,-0.11776307970285416,-0.1324741542339325,0.7709966897964478,-0.6229081749916077,-0.4290199639359407,-0.06699091644958913,-0.013748069434361175,0.9007024850181162
2.4570839583320776,2.449702583333419,0.02702791430056095,0.007975815795361996,0.03499988466501236,0.3462969660758972,-0.032325319945812225,-0.1282864362001419,-0.13314343988895416,0.7682988047599792,-0.6260908842086792,-0.4271402006015206,-0.06712536802474504,-0.014170769377747453,0.9015789633951588
2.4895323750024545,2.4821507500018924,0.019885648041963577,0.028990652412176132,0.028891680762171745,0.4111732542514801,-0.10791264474391937,-0.10915017873048782,-0.13657258450984955,0.7603846192359924,-0.6349512934684753,-0.42167475577719293,-0.06866415790895591,-0.014732400483921632,0.9040235486445299
2.4970542083319742,2.4896727916639065,0.004090998787432909,0.04257991164922714,0.025792613625526428,0.4713265597820282,-0.13276566565036774,-0.08611045777797699,-0.13942526280879974,0.753358781337738,-0.6426593661308289,-0.4168204283875596,-0.07022134612303005,-0.01458954268948345,0.9061549294193438
2.5353659999964293,2.5279844583346858,-0.0047928933054208755,0.05066708102822304,0.02132841944694519,0.4998536705970764,-0.1505584418773651,-0.070689357817173,-0.1409718245267868,0.7496677041053772,-0.6466261148452759,-0.4142749613400184,-0.07115620358511941,-0.014312293605279303,0.9072531399197589
2.535758583333518,2.5283770416644984,-0.013672396540641785,0.05877739191055298,0.016840821132063866,0.5283808708190918,-0.1683512181043625,-0.055268265306949615,-0.14252275228500366,0.745953381061554,-0.6505695581436157,-0.4117258568807893,-0.07209041255762967,-0.014034896129567709,0.9083434282022064
2.558938666668837,2.551557041668275,-0.03094465658068657,0.06724446266889572,0.009418151341378689,0.6147915124893188,-0.19198571145534515,-0.02385752648115158,-0.14581173658370972,0.736872673034668,-0.660119354724884,-0.40547619182790984,-0.07435984990206458,-0.01273813402739867,0.9109870560391287
2.6223265416629147,2.6149451666642562,-0.03337405249476433,0.058704692870378494,-0.002320983214303851,0.682490348815918,-0.15045715868473053,-0.02464383840560913,-0.14730308949947357,0.7298588752746582,-0.6675386428833008,-0.40066547109131645,-0.07548427733983852,-0.011810075970787924,0.9130332810448454
2.6223592500027735,2.6149779166662483,-0.03578485548496246,0.050242822617292404,-0.014138316735625267,0.7501891851425171,-0.1089286282658577,-0.025430142879486084,-0.14881284534931183,0.7227671146392822,-0.6748795509338379,-0.39584296913023387,-0.07660650158338195,-0.010881684466695305,0.9150527021984711
2.622436541663774,2.6150551666651154,-0.03817752003669739,0.041858136653900146,-0.026034800335764885,0.8178880214691162,-0.06740009784698486,-0.026216447353363037,-0.15034089982509613,0.7155981659889221,-0.6821413636207581,-0.3910088234898858,-0.07772655167200829,-0.009952996129363198,0.9170450237344886
2.6362297916639363,2.628848416665278,-0.038843996822834015,-0.01950809173285961,-0.0156716275960207,0.9186745882034302,0.13638876378536224,-0.09602579474449158,-0.151543527841568,0.6913831830024719,-0.706416130065918,-0.37508788895220024,-0.0781088969109205,-0.009670028575469315,0.9236419828014479
2.673542249998718,2.6661606666675652,-0.03611108288168907,-0.0250120609998703,-0.012720264494419098,0.9121237993240356,0.15985137224197388,-0.11544498056173325,-0.1512940526008606,0.6831631064414978,-0.7144216895103455,-0.3698222256426268,-0.07759308811076268,-0.010305996194318993,0.9257994963577891
2.6773297499967157,2.669948208334972,-0.02553713507950306,-0.046929921954870224,-0.016396591439843178,0.8586505651473999,0.20863638818264008,-0.15082146227359772,-0.15059755742549896,0.665638267993927,-0.7309213280677795,-0.35877358678714794,-0.07629447040769938,-0.01206305338169251,0.9302231312681736
2.713125125002989,2.7057435833339696,-0.019957829266786575,-0.05664438381791115,-0.0012524370104074478,0.8242330551147461,0.22843490540981293,-0.15593546628952026,-0.1499028503894806,0.6575583219528198,-0.7383401393890381,-0.35375508249214993,-0.07541398213793318,-0.01314610125088429,0.9322001969257486
2.740837666664447,2.733456000001752,-0.015439622104167938,-0.05638687685132027,0.004290428012609482,0.7797443866729736,0.2179657369852066,-0.17055781185626984,-0.1493636816740036,0.6494844555854797,-0.7455604076385498,-0.3487938180898736,-0.07458327025856383,-0.01437061843679033,0.9341164820141356
2.740914458336192,2.733533124999667,-0.010960971936583519,-0.05605597421526909,0.009747243486344814,0.7352557182312012,0.2074964940547943,-0.18518014252185822,-0.1487848311662674,0.6413374543190002,-0.7526947259902954,-0.3438219515785975,-0.07375029094464108,-0.015594772181191874,0.9360043619510583
2.777870999998413,2.7704894166672602,-0.006899707950651646,-0.042157720774412155,0.029263876378536224,0.623383104801178,0.16651082038879395,-0.17796188592910767,-0.148379385471344,0.6240447759628296,-0.7671712040901184,-0.33344703893179845,-0.0723012408793452,-0.018715292566357233,0.9398060173900387
2.778039999997418,2.770658541667217,0.00062969682039693,-0.04226609691977501,0.03195803984999657,0.5918207168579102,0.15060584247112274,-0.17201077938079834,-0.14845526218414307,0.6185406446456909,-0.7716012597084045,-0.3301820866116982,-0.07196643154684348,-0.019716001012582765,0.9409632499487506
2.8088731666648528,2.8014913333317963,0.0053855739533901215,-0.05284286290407181,0.03362501040101051,0.5392032861709595,0.10118790715932846,-0.16983188688755035,-0.14918620884418488,0.6034824252128601,-0.7832959294319153,-0.32133444408786355,-0.07138780815763272,-0.02241482637842507,0.9440050911257133
2.8407170833306736,2.833335208335484,0.00675945682451129,-0.05544600635766983,0.011224177666008472,0.5105422139167786,0.07720600068569183,-0.17664282023906708,-0.14994092285633087,0.5980014204978943,-0.7873448729515076,-0.31815415228016114,-0.07145268981213669,-0.023397129336143224,0.9450528987915714
2.8416137083331705,2.8342321250020177,0.008117476478219032,-0.05802106484770775,-0.011211997829377651,0.48188114166259766,0.053224124014377594,-0.18345379829406738,-0.15067987143993378,0.592492401599884,-0.7913585305213928,-0.31496997740430344,-0.07151674842292828,-0.024379176249628865,0.946089287453827
2.880741125001805,2.8733597916652798,0.012199158780276775,-0.04262033849954605,-0.00923549197614193,0.42117276787757874,0.07412408292293549,-0.17842313647270203,-0.15215231478214264,0.5808902978897095,-0.7996350526809692,-0.30833084347946194,-0.07151624553841612,-0.026801892499836114,0.9482084855823801
2.8807966250024037,2.8734152916658786,0.01353777851909399,-0.03417517989873886,-0.013010229915380478,0.3887636959552765,0.0679081454873085,-0.18095436692237854,-0.1526210904121399,0.5773316621780396,-0.8021190166473389,-0.3063125783753431,-0.07150588855066443,-0.02762846730251229,0.9488393961073809
2.9272540000019944,2.9198720833301195,0.0007984061376191676,-0.009695947170257568,-0.02293010614812374,0.2718188762664795,0.09392521530389786,-0.15729358792304993,-0.15348096191883087,0.5687700510025024,-0.8080496191978455,-0.30150113867545786,-0.07121969043242452,-0.030044545117852286,0.9503273745030371
2.9279737916658632,2.9205922083347104,-0.00823818426579237,-0.0018806203734129667,-0.01391749270260334,0.23903478682041168,0.092008076608181,-0.14126816391944885,-0.15350773930549622,0.5666460990905762,-0.8095354437828064,-0.30031301870102356,-0.07102375481556032,-0.030740840269254777,0.9506959966657748
2.945171458333789,2.937789833333227,-0.012602237053215504,0.011561580002307892,-0.004957551136612892,0.07345797121524811,0.05492518097162247,-0.09144441783428192,-0.15355442464351654,0.5615301132202148,-0.8130835890769958,-0.29748022885724335,-0.07045361818009935,-0.03272895642184839,0.9515622068640901
3.0043058750015916,2.9969244999956572,-0.013520088978111744,0.0018168670358136296,-0.0021539877634495497,0.013998512178659439,0.06182357296347618,-0.048823148012161255,-0.1530759036540985,0.5620226263999939,-0.8128334879875183,-0.2977757292640339,-0.07009180603039494,-0.033067395288912296,0.951484753342609
3.00436174999777,2.9969803333297023,-0.014437753707170486,-0.007927784696221352,0.0006487794453278184,-0.04546094313263893,0.06872197240591049,-0.006201885640621185,-0.15259778499603271,0.5625152587890625,-0.8125826120376587,-0.298071166066981,-0.06972997399493609,-0.0334057880699364,0.9514070899131578
3.004500625000219,2.997119208332151,-0.015354962088167667,-0.017672544345259666,0.003450896358117461,-0.104920394718647,0.07562036067247391,0.036419373005628586,-0.15212008357048035,0.563007652759552,-0.8123310804367065,-0.2983664128477129,-0.06936812444167136,-0.03374421430793607,0.9513289621603603
3.0438569583348,3.036475208333286,-0.0259739737957716,-0.014999208971858025,0.011901935562491417,-0.14195021986961365,0.043855082243680954,0.12940095365047455,-0.14962996542453766,0.5664927363395691,-0.8103682994842529,-0.30027061394884363,-0.06821582249265565,-0.03314697662795985,0.9508340452295538
3.044151416666864,3.036769958329387,-0.015378950163722038,-0.011024875566363335,0.011165992356836796,-0.1385566145181656,0.028432250022888184,0.14872753620147705,-0.14860494434833527,0.5678844451904297,-0.809582531452179,-0.30100631097072683,-0.06785237267510949,-0.032553331805456776,0.9506479672815004
3.0580985416672775,3.050716708334221,0.020522110164165497,-0.07105684280395508,0.033459972590208054,-0.05383811891078949,0.09572829306125641,0.1741403043270111,-0.1432466059923172,0.5719820261001587,-0.8076614141464233,-0.3030466721033894,-0.06581797205030934,-0.029966505542664078,0.9502277082581054
3.091959791665431,3.0845780416639172,0.02198956348001957,-0.08941562473773956,0.03414019197225571,-0.03170602768659592,0.09327265620231628,0.15435458719730377,-0.14123590290546417,0.5724658966064453,-0.8076726794242859,-0.3032144894776405,-0.06499717336241122,-0.029200769475572704,0.9502544868060594
3.1079004166676896,3.10051887499867,0.016986390575766563,-0.10844072699546814,0.03242826834321022,-0.05446147918701172,0.06581982970237732,0.12988440692424774,-0.13877566158771515,0.5732600092887878,-0.8075359463691711,-0.3035396629300107,-0.06399771781039242,-0.028247276234163045,0.9502473914320338
3.138106666665408,3.130724916663894,0.015022972598671913,-0.12548689544200897,0.03146105632185936,-0.08257438242435455,0.02758892998099327,0.10629436373710632,-0.1374894231557846,0.574280858039856,-0.807030439376831,-0.30405433618870625,-0.0635274474978909,-0.027577724519848086,0.9501340181231597
3.1381753333334927,3.1307939583348343,0.013058359734714031,-0.1425304114818573,0.03049217164516449,-0.11068727821111679,-0.010641970671713352,0.08270431309938431,-0.1362019181251526,0.5752991437911987,-0.8065233826637268,-0.3045687248087378,-0.0630571719784089,-0.02690819994797666,0.9500198433752808
3.172737499997311,3.1653558749967488,0.02140672691166401,-0.17975236475467682,0.027516234666109085,-0.108672596514225,-0.03410037234425545,0.023279670625925064,-0.13600040972232819,0.578418493270874,-0.8043232560157776,-0.306336003935209,-0.0632188953448683,-0.026037058348279483,0.9494649286459218
3.226724499996635,3.2193429583348916,0.019509317353367805,-0.1571144014596939,0.02070627734065056,-0.1509612500667572,0.00906355120241642,-0.0023684389889240265,-0.13668698072433472,0.5809919238090515,-0.8023496866226196,-0.3078870402385304,-0.0634879681352828,-0.026299755609957176,0.948937885610314
3.2268925416647107,3.2195110833345097,0.017835095524787903,-0.14719945192337036,0.04242601990699768,-0.18913617730140686,0.004717372357845306,-0.015417317859828472,-0.13682854175567627,0.583954930305481,-0.8001715540885925,-0.3096621433867429,-0.06343162859319458,-0.026669927180182462,0.9483535652576885
3.2417486249978538,3.2343667916647973,0.018144169822335243,-0.13942822813987732,0.05540037155151367,-0.21791334450244904,8.85715926415287e-05,-0.015916576609015465,-0.1369696706533432,0.5873158574104309,-0.7976837754249573,-0.31167570364052755,-0.06337478499661263,-0.027032451730616858,0.9476873138331373
3.272935333334317,3.265553708333755,0.019631139934062958,-0.1380111277103424,0.05871627479791641,-0.225496307015419,0.010789806954562664,-0.008620561100542545,-0.13704220950603485,0.5909562706947327,-0.7949780821800232,-0.31385291605497795,-0.06330325199025864,-0.027322179876221667,0.9469650118847904
3.3338482916660723,3.326466500002425,0.01660218834877014,-0.12313240766525269,0.06765403598546982,-0.23806972801685333,0.009900470264256,0.012502102181315422,-0.1366778463125229,0.5945965647697449,-0.7923219203948975,-0.3160080837642255,-0.06307091300650257,-0.027396045480789295,0.9462612121748555
3.3342439999978524,3.326862458328833,0.01357355248183012,-0.10824145376682281,0.07657505571842194,-0.2506431043148041,0.009011121466755867,0.03362477198243141,-0.13631349802017212,0.598224937915802,-0.7896490097045898,-0.3181616549864266,-0.06283829830836513,-0.027469781331766755,0.9455527357744802
3.3345941250008764,3.327212583331857,0.010544585064053535,-0.09333820641040802,0.08547952771186829,-0.2632165253162384,0.008121789433062077,0.05474742874503136,-0.13594892621040344,0.6018407344818115,-0.786959707736969,-0.3203134905977256,-0.0626052945776163,-0.027543422464762463,0.944839202639233
3.3419889166689245,3.3346072916683624,0.009733338840305805,-0.09783406555652618,0.09728871285915375,-0.28281673789024353,-0.010858824476599693,0.07031363993883133,-0.135319322347641,0.6060144305229187,-0.783859133720398,-0.32277234123439735,-0.0623574032002141,-0.027240806069522654,0.9440272472914351
3.3760814583292813,3.368699666665634,0.012930123135447502,-0.10861936211585999,0.0869460329413414,-0.3130364716053009,-0.02211988903582096,0.07056955993175507,-0.13486188650131226,0.610725998878479,-0.7802730202674866,-0.3255554732412165,-0.06226644814455975,-0.02674815341142125,0.9430912506329427
3.380097666668007,3.3727161249989877,0.01981951855123043,-0.12012996524572372,0.09437639266252518,-0.3371203541755676,0.0013583176769316196,0.051487892866134644,-0.13416187465190887,0.6159170269966125,-0.7763032913208008,-0.32863639749431217,-0.062019867101361405,-0.02633648790858964,0.9420499532568949
3.4390323749976233,3.4316508333358797,0.020365115255117416,-0.12016496062278748,0.1017749011516571,-0.34722644090652466,0.017092078924179077,0.03748629614710808,-0.13342730700969696,0.6215811967849731,-0.771902859210968,-0.3320445092822449,-0.061603767647544064,-0.026357459946391413,0.940880834077408
3.4390885833345237,3.4317072083358653,0.02090907096862793,-0.1201675608754158,0.10913233458995819,-0.3573325574398041,0.03282584995031357,0.023484688252210617,-0.13269147276878357,0.6272130012512207,-0.7674612402915955,-0.33544828480552974,-0.06118684310029922,-0.026378156996364206,0.9396992845473435
3.446368041666574,3.4389865416669636,0.03266556188464165,-0.13170501589775085,0.11827293783426285,-0.32242727279663086,0.035378411412239075,-0.00592369819059968,-0.1320924162864685,0.6325091123580933,-0.7632062435150146,-0.33867967544735167,-0.0607696170856118,-0.02660409866161456,0.9385602602350616
3.522022333330824,3.5146406666681287,0.021301154047250748,-0.11709360778331757,0.128325954079628,-0.29694902896881104,0.0038364084903150797,-0.025400826707482338,-0.13230158388614655,0.636625349521637,-0.7597397565841675,-0.34126391945492995,-0.060572659917486144,-0.02741890274071625,0.9376130521193845
3.52250383333012,3.515122249998967,0.009943542070686817,-0.10246258229017258,0.13835622370243073,-0.2714707553386688,-0.027705606073141098,-0.04487796127796173,-0.13251754641532898,0.6407216787338257,-0.7562505006790161,-0.3438452972665358,-0.06037515573826383,-0.028233348520343166,0.9366579678717808
3.5230729583345237,3.515691416665504,-0.0014071320183575153,-0.08781149983406067,0.14836354553699493,-0.245992511510849,-0.05924760177731514,-0.06435509026050568,-0.1327405869960785,0.6447982788085938,-0.7527384161949158,-0.3464238732753287,-0.06017716657315601,-0.02904769199450494,0.9356951713141805
3.5234193750002305,3.5160379166627536,-0.012750621885061264,-0.07314056158065796,0.15834836661815643,-0.22051425278186798,-0.09078962355852127,-0.08383221924304962,-0.13297057151794434,0.6488547325134277,-0.7492038011550903,-0.3489994995985506,-0.059978674115042006,-0.029861764605372064,0.934724665603849
3.524021041666856,3.516639583329379,0.0038257092237472534,-0.05909549817442894,0.12481185793876648,-0.15255852043628693,-0.1323353499174118,-0.05332718417048454,-0.13570034503936768,0.6515323519706726,-0.7463852763175964,-0.35078666190384483,-0.06128686281425971,-0.030248629220099077,0.9339580527064991
3.5487722499965457,3.541390833335754,0.012023797258734703,-0.0458696112036705,0.12100465595722198,-0.0809946209192276,-0.10320385545492172,-0.025704840198159218,-0.13804467022418976,0.6531062722206116,-0.7445776462554932,-0.3518556161106697,-0.06252050732976969,-0.03029985443868435,0.9334723615742588
3.5908087083298597,3.5834270416671643,0.0048032114282250404,-0.015322867780923843,0.07916098088026047,-0.09998299181461334,-0.1062404066324234,0.000611073337495327,-0.13987739384174347,0.6542986035346985,-0.7431874871253967,-0.35265233797760503,-0.06358141283655862,-0.030087549158771154,0.9331068984978982
3.5992908333355444,3.5919093333286582,-0.0014389414573088288,-0.002064676256850362,0.07342448830604553,-0.15877914428710938,-0.04705411195755005,0.06568002700805664,-0.14054563641548157,0.6563699841499329,-0.7412322759628296,-0.35393586502125784,-0.06413469444223849,-0.02955567683205977,0.9325998814047198
3.6035232083304436,3.5961415833298815,-0.02536408044397831,-0.025689205154776573,0.09462761878967285,-0.20762263238430023,-0.08793029189109802,0.12045233696699142,-0.14024138450622559,0.6594192385673523,-0.7385787963867188,-0.3557689238639407,-0.0643356959116578,-0.02857202767672162,0.9319190516276423
3.633672583331645,3.6262909166689496,-0.023521926254034042,-0.08630316704511642,0.09318964928388596,-0.19971886277198792,-0.1752156913280487,0.1236521527171135,-0.14049385488033295,0.6628029942512512,-0.7354955077171326,-0.3577987715726357,-0.06505612438472774,-0.02702841282088516,0.93113754986142
3.6635511249987758,3.6561694583288045,-0.005835192743688822,-0.10183300822973251,0.051449842751026154,-0.23490889370441437,-0.26555344462394714,0.019076937809586525,-0.1425393670797348,0.6661235094070435,-0.7320942878723145,-0.35986621054642026,-0.0667020828150965,-0.025618260330151663,0.9302638861291762
3.6640134583358304,3.6566319999983534,0.0072854068130254745,-0.03827877715229988,0.020463639870285988,-0.39744165539741516,-0.20398391783237457,-0.047695524990558624,-0.14638613164424896,0.6706454157829285,-0.7271903157234192,-0.3628381407452998,-0.06894432746455685,-0.025209065824839658,0.9289561698065326
3.7022692916652886,3.694887583333184,0.0031616133637726307,0.0034191985614597797,0.02978626824915409,-0.5029475688934326,-0.19343098998069763,-0.03945132717490196,-0.14995582401752472,0.6771934032440186,-0.7203626036643982,-0.3671470662133852,-0.07086417275754173,-0.025272337524724416,0.9271151627727102
3.7023278333363123,3.694946458330378,0.017705624923110008,0.020510081201791763,0.013855945318937302,-0.45690494775772095,-0.1934552788734436,-0.015287564136087894,-0.15329742431640625,0.6840936541557312,-0.7131028771400452,-0.37169668108707654,-0.07273334025061945,-0.025178812666305513,0.9251580491250176
3.7251348333302303,3.7177531249981257,0.029545651748776436,0.04173419624567032,0.005134045146405697,-0.31435269117355347,-0.1387331336736679,0.020587125793099403,-0.1556975543498993,0.6892808079719543,-0.7075663805007935,-0.3751132649520599,-0.074208174093639,-0.02480545957559855,0.9236708431634142
3.75828987499699,3.750908124995476,0.02515781670808792,0.08219868689775467,-0.009252526797354221,-0.18668720126152039,-0.06355836987495422,0.047889553010463715,-0.15647950768470764,0.6924874186515808,-0.7042551040649414,-0.3771845201405798,-0.07486172910728849,-0.02428054474137849,0.9227881014542828
3.821819416669314,3.814437958331837,0.022340111434459686,0.07524053007364273,-0.008907592855393887,-0.12026004493236542,-0.022253841161727905,0.05037550628185272,-0.15515612065792084,0.6939296126365662,-0.7031274437904358,-0.3780255390269286,-0.07438403921490444,-0.023699362001662633,0.9224976691011155
3.8221067916674656,3.814725374999398,0.019520536065101624,0.06828633695840836,-0.008565573953092098,-0.05383289232850075,0.019050680100917816,0.05286145955324173,-0.15383091568946838,0.6953678131103516,-0.7019968032836914,-0.3788660085217028,-0.07390627530471662,-0.023118071303536613,0.922205974142863
3.822254791666637,3.8148733749985695,0.016699397936463356,0.06133614107966423,-0.00822654739022255,0.01259426400065422,0.060355205088853836,0.055347416549921036,-0.15250398218631744,0.6968021392822266,-0.700863242149353,-0.37970601290381667,-0.07342843579809194,-0.0225367998546888,0.9219130563510332
3.8529293749961653,3.8455479166659643,0.01450342033058405,0.06813866645097733,0.0065568857826292515,-0.0010376793798059225,0.047016773372888565,0.03163452073931694,-0.15066784620285034,0.6971651911735535,-0.7008994221687317,-0.3798504925831553,-0.07255277842199859,-0.02223327491833135,0.9219302919581618
3.8539194999975734,3.84653795833583,0.012724443338811398,0.06326158344745636,-0.01589388959109783,-0.07581479847431183,0.04526244103908539,0.001813574810512364,-0.1495666205883026,0.6981375217437744,-0.7001670598983765,-0.38044305168415343,-0.07196917186587222,-0.022203053887691473,0.9217324380157124
3.863999250002962,3.8566176666645333,0.00830465741455555,0.04506535455584526,-0.02202799543738365,-0.11054503917694092,0.09965791553258896,-0.02817050740122795,-0.1484955996274948,0.6997401118278503,-0.6987938284873962,-0.3814828082595806,-0.07123163023063984,-0.022592147763978,0.9213503986700129
3.8993924583337503,3.892010791663779,-0.0027641369961202145,0.04366806894540787,0.0017436075722798705,-0.09346146881580353,0.07806514948606491,-0.06824233382940292,-0.14749674499034882,0.7012429237365723,-0.6974977254867554,-0.3824946606036206,-0.07034903159559687,-0.0234211735494701,0.9209779080262382
3.9015870000002906,3.8942055416628136,0.0005421022651717067,0.059158939868211746,-0.007482666056603193,-0.057098012417554855,0.04220085218548775,-0.12171510607004166,-0.14772967994213104,0.7022436857223511,-0.6964406967163086,-0.3832482143356442,-0.07000325769921437,-0.024567819061208387,0.920661013221373
3.9304834166687215,3.92310174999875,-0.0018296996131539345,0.09492767602205276,-0.046271007508039474,-0.05752833932638168,0.041365887969732285,-0.16410669684410095,-0.14919087290763855,0.702789306640625,-0.695578396320343,-0.38377954144341053,-0.07017172320771835,-0.02608378887945249,0.9203852142625674
3.9626524166669697,3.955270999998902,-0.018642932176589966,0.11775227636098862,-0.03564697504043579,-0.031951189041137695,0.06260515749454498,-0.15684759616851807,-0.15063652396202087,0.703008234500885,-0.6950452923774719,-0.38411691848493884,-0.07022493610427233,-0.02785113056063446,0.920188509476712
3.9627018333339947,3.9553204583353363,-0.033484138548374176,0.07861138135194778,-0.017662325873970985,0.05156455934047699,0.010729854926466942,-0.12729667127132416,-0.15200775861740112,0.7025648951530457,-0.6951950788497925,-0.3839904087929155,-0.07038333968814842,-0.029266779374097687,0.9201853463310914
4.004371333336167,3.9969897083356045,-0.02641075663268566,0.028231695294380188,-0.016354607418179512,0.199702188372612,-0.0465148463845253,-0.11991141736507416,-0.15389929711818695,0.7003916501998901,-0.6969695091247559,-0.38271558870303757,-0.07102124763928201,-0.030218009478734244,0.9206364947259839
4.004819374997169,3.997437791666016,-0.01574111171066761,0.050618622452020645,-0.094260573387146,0.22944791615009308,-0.08547013252973557,-0.15981510281562805,-0.1569177210330963,0.6966095566749573,-0.7000799179077148,-0.38043915377741616,-0.07229162996389027,-0.03113699551550491,0.9214501834041934
4.035236958334281,4.027855374995852,-0.008167246356606483,0.09067843109369278,-0.0726202204823494,0.13381129503250122,0.037207622081041336,-0.08325997740030289,-0.15846368670463562,0.6937578916549683,-0.7025590538978577,-0.3787241108113159,-0.07272216480637322,-0.03214904931728108,0.9220878631921183
4.06395479166531,4.056573124995339,0.003185261506587267,0.08581387251615524,-0.07029374688863754,0.027882611379027367,0.07479355484247208,-0.0003442499728407711,-0.1583196222782135,0.6925085186958313,-0.7038229703903198,-0.37795095205892043,-0.07239880171246506,-0.032751593270249166,0.9224092160313915
4.064142124996579,4.056760708335787,0.012887195684015751,0.03945939615368843,-0.04338708519935608,0.001999882748350501,0.1252959668636322,0.08738962560892105,-0.15628141164779663,0.6925830841064453,-0.7042050957679749,-0.3779055088609333,-0.07130838497268645,-0.032700453478156755,0.9225146321481952
4.12521670832939,4.117834999997285,-0.002385808154940605,0.011876278556883335,-0.02655608579516411,0.04234444350004196,0.08916911482810974,0.13048788905143738,-0.15301218628883362,0.6922168135643005,-0.7052822709083557,-0.37744732176822343,-0.06994559496437489,-0.03167954079858001,0.9228420710479157
4.125919874997635,4.118538416667434,-0.017659716308116913,-0.0156962089240551,-0.009731460362672806,0.08268900215625763,0.05304228886961937,0.1735861897468567,-0.14974220097064972,0.6918401718139648,-0.706352949142456,-0.3769880040904428,-0.06858264697757749,-0.030658531516706267,0.9231666031144009
4.126162333333923,4.118780916665855,-0.0033203496132045984,-0.008788625709712505,-0.05685516819357872,0.018061917275190353,0.0004664382431656122,0.15324074029922485,-0.14750975370407104,0.6915163993835449,-0.707139253616333,-0.3765747180319693,-0.06798426295804247,-0.029147695074084927,0.9234283950212421
4.170664208329981,4.163282499997877,0.014032648876309395,-0.03773414343595505,-0.034766655415296555,-0.030686767771840096,0.08915883302688599,0.14302852749824524,-0.14456935226917267,0.6922020316123962,-0.7070757150650024,-0.3768109349436065,-0.06690038415583799,-0.027880022768513247,0.9234503693855228
4.171109458329738,4.163727916667995,0.02090976946055889,-0.06567957997322083,-0.020172908902168274,-0.014718296006321907,0.16492529213428497,0.10755549371242523,-0.14151474833488464,0.6929134726524353,-0.7069968581199646,-0.37710826231041455,-0.06550523193090049,-0.02722470206144746,0.923448606875247
4.197769583333866,4.190387958333304,-0.013044595718383789,-0.028111033141613007,-0.03545697033405304,-0.025604262948036194,0.0691353976726532,0.02166268788278103,-0.13927671313285828,0.69282466173172,-0.7075280547142029,-0.3769664851895894,-0.06428254806044971,-0.027237209753504712,0.9235919920985408
4.2040775416680845,4.196696125000017,-0.013352734036743641,0.03356003016233444,-0.03985512629151344,-0.16183193027973175,0.047759898006916046,0.013847085647284985,-0.1378011852502823,0.6937654614448547,-0.7068949341773987,-0.37753914758614715,-0.06337768786236957,-0.027485355456990195,0.9234133313606033
4.237090666669246,4.229709291663312,0.006452296394854784,0.061756305396556854,-0.06475958973169327,-0.3493718206882477,0.07897166162729263,0.019355246797204018,-0.13669699430465698,0.696823239326477,-0.7040960788726807,-0.37950862074238007,-0.06265109092064265,-0.027782507837580888,0.9226462911619228
4.24502124999708,4.237639791666879,0.019261017441749573,0.037658825516700745,-0.05891065299510956,-0.4127499461174011,0.10595795512199402,0.0012889632489532232,-0.1350775808095932,0.7015771269798279,-0.6996738910675049,-0.38258523612723916,-0.06157583818768501,-0.028230952154382868,0.9214336711053633
4.265181583330559,4.257799999999406,0.011376329697668552,0.018849359825253487,-0.03321386128664017,-0.4014090597629547,0.16592544317245483,-0.0011246707290410995,-0.1333509087562561,0.70681232213974,-0.6947184801101685,-0.38601296089408604,-0.0602888335704015,-0.029029904542631452,0.9200632783983298
4.29838754166849,4.2910059166679275,-0.0016385085182264447,0.0743202269077301,-0.09304630011320114,-0.4506032466888428,0.0670279860496521,-0.04667273908853531,-0.13325484097003937,0.7119588851928711,-0.689461886882782,-0.38947340062046854,-0.05982906224800255,-0.029958925426975622,0.918604075327159
4.3270562083343975,4.319674666665378,0.009357200004160404,0.11479845643043518,-0.08051551878452301,-0.5658071041107178,0.006396024953573942,-0.006698185577988625,-0.133122980594635,0.7186511754989624,-0.682509183883667,-0.3939665477935061,-0.05946224612612166,-0.030594233817391858,0.9166889956239868
4.328047083334241,4.320665624996764,0.01421597320586443,0.09179128706455231,-0.06431615352630615,-0.6881596446037292,0.045069389045238495,0.054394204169511795,-0.13233572244644165,0.7272698879241943,-0.6734728813171387,-0.3997425656747585,-0.05890195096820986,-0.030817066675304323,0.9142137400775573
4.367113458334643,4.359731999997166,0.030069716274738312,0.02981908805668354,-0.04308939725160599,-0.7803202271461487,0.0730377808213234,0.07872097939252853,-0.13046474754810333,0.7373184561729431,-0.6628276109695435,-0.4064999251049485,-0.057827487669031064,-0.03083477782368095,0.911297430810529
4.367152124999848,4.359770791663323,0.02638890966773033,-0.05147578567266464,-0.02307984046638012,-0.7783758640289307,0.15574075281620026,0.07430283725261688,-0.12723657488822937,0.7480161786079407,-0.6513698101043701,-0.413749126911546,-0.05591737772855844,-0.031026916549388137,0.9081422121216783
4.425830749998568,4.418449166667415,-0.008824342861771584,0.004830197896808386,-0.011434393003582954,-0.7352390289306641,0.0072691901586949825,0.04337821155786514,-0.12609867751598358,0.7571905255317688,-0.6409068703651428,-0.4201312857892703,-0.05510248839452312,-0.031342620062934985,0.9052463724635322
4.4261969166691415,4.418815375000122,-0.04403240978717804,0.061285071074962616,8.180915756383911e-05,-0.6921021938323975,-0.1412023901939392,0.012453576549887657,-0.12496604770421982,0.7662160992622375,-0.6303145289421082,-0.4264925391424949,-0.05428494499889943,-0.031656889055395925,0.9023054546365301
4.426568374998169,4.419186874998559,-0.04154352843761444,0.06861474364995956,-0.0156584270298481,-0.6690003871917725,-0.19372272491455078,0.021058257669210434,-0.1263410449028015,0.7745779752731323,-0.6197313070297241,-0.4325292295496274,-0.055252242482701025,-0.0311596228364879,0.8993857657707507
4.466297291663068,4.458915833332867,-0.036563701927661896,0.06449751555919647,-0.007221016101539135,-0.5706683397293091,-0.20056164264678955,-0.0031732090283185244,-0.12792398035526276,0.781901478767395,-0.6101357340812683,-0.43789456590211395,-0.05639590544396211,-0.03057776608177868,0.8967345820333195
4.468329791663564,4.460948166663002,-0.017666053026914597,0.09181979298591614,-0.021394191309809685,-0.4131527245044708,-0.09415104985237122,-0.00230155186727643,-0.12964078783988953,0.7876160144805908,-0.6023738980293274,-0.4421621353276646,-0.057495297513975994,-0.03027475639287337,0.8945783352753913
4.50660233333474,4.499220916666673,-0.019975043833255768,0.1524457335472107,-0.0302134919911623,-0.2921886444091797,-0.04210422560572624,0.04979221895337105,-0.13059350848197937,0.7917972803115845,-0.5966594219207764,-0.44529809925769887,-0.05813692925221075,-0.03004999604597227,0.8929875552242315
4.506714416667819,4.499332999999751,-0.02439410239458084,0.15781283378601074,-0.03284687176346779,-0.21027813851833344,-0.10981062054634094,0.1041160449385643,-0.13072407245635986,0.7948490977287292,-0.5925588607788086,-0.4475261092647293,-0.05865962049704315,-0.029149952468896723,0.8918686100964617
4.537938666668197,4.530557083329768,-0.016086848452687263,0.12216965109109879,-0.010959665291011333,-0.15056444704532623,-0.13830465078353882,0.12722410261631012,-0.13027216494083405,0.7972880601882935,-0.5893732905387878,-0.4492364570487193,-0.059160497807188364,-0.02765298113170515,0.8910229611307426
4.569642083333747,4.5622605416647275,-0.002064069267362356,0.08773904293775558,-0.044534314423799515,-0.07558304816484451,-0.12763798236846924,0.11578065901994705,-0.1300870180130005,0.7989311814308167,-0.5871851444244385,-0.4503558253347867,-0.05989215269673914,-0.026006190586698487,0.8904584628947567
4.570761416667665,4.563379874998645,0.012251931242644787,0.05948313698172569,-0.04910702630877495,0.0068918196484446526,-0.010412966832518578,0.11225727200508118,-0.12900307774543762,0.7996528148651123,-0.5864414572715759,-0.4507593988882102,-0.0599601969736215,-0.02466885253054587,0.8902877061932911
4.613519874998019,4.606138374998409,0.023738769814372063,0.056643206626176834,-0.04955672845244408,0.04326524958014488,0.03436662256717682,0.08949014544487,-0.12763085961341858,0.7994693517684937,-0.5869916081428528,-0.45049618493766846,-0.05964384869547253,-0.023761718892572614,0.89046686513211
4.613568624998152,4.606187291668903,0.010152711533010006,0.051793962717056274,-0.0007017520256340504,0.04394887387752533,0.015529988333582878,0.0717187151312828,-0.1259174793958664,0.7990981936454773,-0.5878663063049316,-0.45009681577337146,-0.05898895969876579,-0.023140758961701608,0.8907286817935733
4.64600529166637,4.638623624996399,-0.0014285128563642502,0.032280679792165756,0.010059504769742489,0.04145859181880951,-0.056013986468315125,0.026578495278954506,-0.12530623376369476,0.7987656593322754,-0.5884485244750977,-0.4497810697397585,-0.05892987211537306,-0.02257121732308206,0.8909067022492188
4.662847083331144,4.6554652499980875,-0.013247770257294178,0.0158231258392334,-0.013395034708082676,0.05993778258562088,-0.08557738363742828,0.0004595580976456404,-0.1258675754070282,0.7982696890830994,-0.5890015959739685,-0.4493967490954817,-0.05951272917622146,-0.022037245767389923,0.8910752883554507
4.669168833330332,4.661787291668588,-0.001646395307034254,0.04049059376120567,-0.06604689359664917,0.058465175330638885,-0.05395938456058502,-0.026588276028633118,-0.12760479748249054,0.7973798513412476,-0.5898324251174927,-0.4487877372927841,-0.06060821725151272,-0.02179524575006895,0.8913142410063577
4.720978041666967,4.713596249996044,-0.0005799751961603761,0.052432890981435776,-0.0691351443529129,0.028243986889719963,-0.06095549091696739,-0.0499328151345253,-0.1285780519247055,0.7967530488967896,-0.5904679298400879,-0.4483693305431012,-0.06108169020821693,-0.021935860702446984,0.8914891608051128
4.721396041662956,4.714014583332755,0.0004860230255872011,0.06437636911869049,-0.07222457230091095,-0.0019772055093199015,-0.06795159727334976,-0.07327735424041748,-0.12955108284950256,0.7961245775222778,-0.5911023616790771,-0.4479506479136563,-0.06155506294683335,-0.02207642167561985,0.8916634493013252
4.72813595833577,4.720754499998293,-0.0040055434219539165,0.08961693942546844,-0.024308623746037483,-0.08828721195459366,0.016858816146850586,-0.035421378910541534,-0.13010117411613464,0.7966054677963257,-0.5903332829475403,-0.4483687858253374,-0.06163436359948288,-0.022542816111232846,0.8914361434976926
4.776315666669689,4.768934208332212,-0.017066609114408493,0.10638422518968582,-0.01799009181559086,-0.15578468143939972,-0.00679418072104454,-0.025708097964525223,-0.13070394098758698,0.7978240847587585,-0.5885517001152039,-0.4493430272278286,-0.06176567827901698,-0.022974350006674485,0.8909253289244913
4.7768601666684845,4.7694787083310075,-0.030488532036542892,0.09167174249887466,-0.002934989519417286,-0.16989843547344208,-0.0331837497651577,-0.015574702993035316,-0.13111470639705658,0.7997220158576965,-0.5858784914016724,-0.4508069496196067,-0.061918171771302426,-0.023157697487730545,0.8901701580380516
4.786935208336217,4.779553583335655,-0.03726198151707649,0.09885512292385101,-0.026186367496848106,-0.17326486110687256,-0.08104033768177032,-0.013006454333662987,-0.13216516375541687,0.8016892671585083,-0.5829466581344604,-0.4523429203197357,-0.06255037993250358,-0.023109791831782543,0.8893477408626331
4.81888166666613,4.811500208328653,-0.03917890414595604,0.10290835797786713,-0.03123592399060726,-0.14618313312530518,-0.1252465844154358,-0.0033571298699826,-0.13348932564258575,0.8035679459571838,-0.580051064491272,-0.4538151202296971,-0.06345310604031325,-0.022837529441453237,0.8885404440732149
4.849657666665735,4.842276041665173,-0.04634670913219452,0.12016455084085464,-0.051911573857069016,-0.10196937620639801,-0.12335142493247986,0.014501799829304218,-0.1348041296005249,0.8050675988197327,-0.5776625871658325,-0.4549837295824758,-0.0644865903562503,-0.02229881311690937,0.8878818420568957
4.850512958335457,4.843131416666438,-0.04911484196782112,0.1356940120458603,-0.07547444105148315,-0.060985200107097626,-0.10167744755744934,0.03188074752688408,-0.1358308643102646,0.806053876876831,-0.5760443806648254,-0.455738140286257,-0.06542603055613459,-0.02162113729566446,0.8874427686271549
4.883740333330934,4.87635879166919,-0.04248885437846184,0.12135756015777588,-0.07147004455327988,-0.014308182522654533,-0.056789107620716095,0.0461663156747818,-0.13612613081932068,0.8066137433052063,-0.5751903057098389,-0.45612975193164956,-0.06595820632374949,-0.020923211501978078,0.8872188925183049
4.88733720833261,4.879955833333952,-0.03411022201180458,0.08347167819738388,-0.05545230582356453,0.038489554077386856,-0.021110912784934044,0.0560142919421196,-0.13558200001716614,0.8066222071647644,-0.5753070116043091,-0.45606324726265157,-0.06597587110492864,-0.020288460755668713,0.8872665710203504
4.929615416665911,4.922233791665349,-0.024177394807338715,0.043715719133615494,-0.04288800060749054,0.10147257149219513,-0.009735685773193836,0.042712751775979996,-0.1347198188304901,0.8059667944908142,-0.576427161693573,-0.45547763776035854,-0.06577655375432363,-0.01970888365203748,0.8875952279403264
4.929875750000065,4.922494124999503,-0.02190876193344593,0.03355216607451439,-0.053215142339468,0.1278483122587204,0.018748676404356956,0.026073439046740532,-0.13404782116413116,0.8047198057174683,-0.57832270860672,-0.4544651140019922,-0.06557513701714802,-0.019328645771890283,0.8881372453718235
4.962067708329414,4.954685958335176,-0.01178829837590456,0.04698294773697853,-0.057935312390327454,0.13629892468452454,0.026259493082761765,-0.012578140012919903,-0.1337345540523529,0.8031368255615234,-0.5805913805961609,-0.4532383972886008,-0.06541609269975725,-0.01925463941982879,0.8887772683528731
5.036021333333338,5.028639750002185,-0.014155692420899868,0.04432876408100128,-0.04955762252211571,0.12925416231155396,0.020401788875460625,-0.03349670395255089,-0.13416995108127594,0.8016781806945801,-0.582503616809845,-0.452191497499098,-0.06535312207703392,-0.01982854049580435,0.889302341148512
5.036138999996183,5.028757583335391,-0.01652625948190689,0.04167930781841278,-0.041182853281497955,0.12220940738916397,0.014544080942869186,-0.0544152706861496,-0.1346021592617035,0.8002147078514099,-0.5844130516052246,-0.4511437724382579,-0.06528997721842021,-0.020402287527329203,0.8898259414310957
5.036301791667938,5.0289203749998705,-0.018899647518992424,0.03903472423553467,-0.03281114250421524,0.11516464501619339,0.008686368353664875,-0.07533383369445801,-0.13503140211105347,0.7987465858459473,-0.5863193273544312,-0.45009532863869794,-0.06522671935981052,-0.020976049072232647,0.8903480660433583
5.036430291664146,5.029048874996079,-0.021396048367023468,0.04302574321627617,-0.04084768891334534,0.12422998249530792,-0.001873305533081293,-0.06827501207590103,-0.13610205054283142,0.7971851229667664,-0.588193953037262,-0.44901282172471274,-0.06550202901993885,-0.021598339130197687,0.8908594175717682
5.050981291664357,5.043599833334156,-0.019703345373272896,0.05161040276288986,-0.04712853953242302,0.15124881267547607,-0.007968655787408352,-0.033667244017124176,-0.1370364874601364,0.7953869700431824,-0.5904070138931274,-0.4477297344031349,-0.06583754029341796,-0.021946156233008593,0.8914716847052617
5.084205458333599,5.076824041665532,-0.02124861814081669,0.04095414653420448,-0.04123448580503464,0.16602833569049835,0.00535637978464365,-0.008477568626403809,-0.1372499316930771,0.7934131622314453,-0.5930075645446777,-0.44626378324227617,-0.06591543665688007,-0.021994272008135876,0.8921995459783252
5.087614833333646,5.0802332916646264,-0.03225639462471008,0.03573014959692955,-0.05033237487077713,0.15062296390533447,0.0036373096518218517,-0.007724723778665066,-0.13726936280727386,0.7914650440216064,-0.5956007242202759,-0.4448089685394141,-0.06591385337081244,-0.02198355824924703,0.8929261063990432
5.120425000000978,5.113043124998512,-0.043245162814855576,0.03983350098133087,-0.07796389609575272,0.11056789010763168,-0.003348079975694418,-0.00871417298913002,-0.13747455179691315,0.7898393869400024,-0.5977077484130859,-0.44360566571306154,-0.06603147139605112,-0.021949810486979658,0.8935166871440453
5.150637624996307,5.143256249997648,-0.0453554205596447,0.049770817160606384,-0.07190605998039246,0.08387970924377441,-0.00359951495192945,-0.004538557957857847,-0.1374482661485672,0.7887164950370789,-0.5991947054862976,-0.44277045360073974,-0.06600730111921083,-0.021948287428743527,0.8939327358850669
5.150777249997191,5.143395874998532,-0.04199312627315521,0.06761932373046875,-0.08571939915418625,0.09781716018915176,0.0071701472625136375,-0.01789628341794014,-0.13752299547195435,0.7876678109169006,-0.600555419921875,-0.4420020390958083,-0.06600361016424046,-0.022021898388742748,0.8943113354098837
5.193084999998973,5.185703249997459,-0.04592857509851456,0.0913313552737236,-0.0969269797205925,0.13313108682632446,0.04233434051275253,-0.014932232908904552,-0.13749928772449493,0.7862309813499451,-0.6024407148361206,-0.4409537124262212,-0.06587458949487819,-0.022231102144814396,0.8948330380444984
5.193440000002738,5.186058499995852,-0.05262549966573715,0.10597486793994904,-0.10014227032661438,0.16446293890476227,0.048337146639823914,-0.008711840957403183,-0.13705411553382874,0.7843822240829468,-0.6049468517303467,-0.4395861339084419,-0.06550269118221962,-0.02244746343452115,0.8955275654658574
5.22256175000075,5.215180166662321,-0.04653729498386383,0.1062900498509407,-0.09439834207296371,0.18100303411483765,0.061896465718746185,0.0013568524736911058,-0.1363907754421234,0.7822718620300293,-0.6078226566314697,-0.4380169847277103,-0.06503685496812293,-0.02260452281359995,0.8963261021790736
5.252581374996225,5.245199833334482,-0.03860640898346901,0.10637060552835464,-0.09454160928726196,0.18533264100551605,0.05348542705178261,0.009789612144231796,-0.13565070927143097,0.7800549268722534,-0.6108299493789673,-0.43636708290355253,-0.06456618712302147,-0.022685021747418453,0.8971624520608423
5.252869541669497,5.245488000000478,-0.038901835680007935,0.10434498637914658,-0.08634260296821594,0.18248331546783447,0.03736168146133423,0.019142283126711845,-0.1347976177930832,0.777840793132782,-0.6138348579406738,-0.4347134871177759,-0.06408397497625384,-0.02266184183004673,0.8979999008720024
5.333219000000099,5.32583745833108,-0.03550655022263527,0.10312964022159576,-0.0860668197274208,0.14438386261463165,0.031409621238708496,0.019236667081713676,-0.13408052921295166,0.7762759923934937,-0.615969181060791,-0.4335258511310001,-0.06380247826220407,-0.022391547800847615,0.898600729664544
5.3334836666690535,5.326102083330625,-0.032111283391714096,0.10192038118839264,-0.08579548448324203,0.10628439486026764,0.025457564741373062,0.019331052899360657,-0.1333635300397873,0.7747049927711487,-0.6180990934371948,-0.43233732705835953,-0.06352082956596625,-0.02212126354912782,0.8991998299500207
5.3338654583349125,5.326483958335302,-0.028715921565890312,0.10071727633476257,-0.0855286568403244,0.06818492710590363,0.01950550451874733,0.019425440579652786,-0.1326466053724289,0.7731277346611023,-0.6202244758605957,-0.43114797929301524,-0.0632390909127514,-0.021850860288566462,0.89979707767801
5.334182333332137,5.326800791663118,-0.01760142296552658,0.10588335990905762,-0.10029079020023346,0.0023248009383678436,0.021725544705986977,0.011004877276718616,-0.13218028843402863,0.7725624442100525,-0.621027946472168,-0.4307106752933226,-0.06304239138554966,-0.0217094636791991,0.9000237759814145
5.351431083334319,5.344049583334709,0.0066182613372802734,0.10950388014316559,-0.10668656975030899,-0.03528158739209175,0.017149515450000763,-0.021347761154174805,-0.13199326395988464,0.7727304697036743,-0.6208586096763611,-0.4308329837921624,-0.06287799628049075,-0.02183700966005326,0.8999735840009953
5.384718708330183,5.3773371249990305,0.011183126829564571,0.1259663999080658,-0.10484793782234192,-0.048135824501514435,0.060954749584198,-0.03795303776860237,-0.13189229369163513,0.7732374668121338,-0.6202484965324402,-0.43123009716831345,-0.06258089505298992,-0.022346279856677975,0.8997915496766398
5.391161874998943,5.383780249998381,0.0002973383816424757,0.1422431766986847,-0.06354972720146179,-0.030435288324952126,0.03570707142353058,-0.027717597782611847,-0.13166125118732452,0.7736839056015015,-0.6197407245635986,-0.4315827761356823,-0.06217669019217552,-0.022925473898615826,0.8996359852506075
5.4417599583321135,5.434378458332503,-0.006521659903228283,0.13072285056114197,-0.06660190969705582,-0.005484689027070999,-0.014825493097305298,-0.02572697214782238,-0.13253679871559143,0.7736695408821106,-0.6195720434188843,-0.431615031888057,-0.062629454880105,-0.023001406149089694,0.8995871394360648
5.442545916666859,5.435164416667249,-0.013340866193175316,0.11920304596424103,-0.06965482234954834,0.019465912133455276,-0.06535806506872177,-0.023736344650387764,-0.13341206312179565,0.773654580116272,-0.6194027662277222,-0.4316471381790406,-0.06308211698199856,-0.023077335242297086,0.8995381250636931
5.448626791665447,5.441245083333342,-0.016006624326109886,0.11696206033229828,-0.08148743212223053,0.03847895562648773,-0.06257987022399902,-0.0149815259501338,-0.1346244513988495,0.7732807993888855,-0.6196072101593018,-0.43142016129208227,-0.0638204213915155,-0.02294626726866915,0.8995983314140551
5.488287250002031,5.480905458331108,-0.013686868362128735,0.11226378381252289,-0.09586668759584427,0.05113482475280762,-0.04062997177243233,-0.01583179086446762,-0.13574349880218506,0.7726582288742065,-0.620139479637146,-0.43100829014267206,-0.06451453369526686,-0.022794908999956263,0.8997500552939616
5.489655249999487,5.482273499997973,-0.0015605217777192593,0.09970609098672867,-0.10811261832714081,0.06567085534334183,0.0027172784321010113,-0.03016788884997368,-0.13644376397132874,0.7718194127082825,-0.621029794216156,-0.4304372509252702,-0.06487591100153155,-0.022846099283094872,0.8999961624561039
5.523491666666814,5.5161099166653,-0.0035373945720493793,0.09121031314134598,-0.07669677585363388,0.07498154789209366,0.05902384594082832,-0.03552287444472313,-0.13634520769119263,0.7708837389945984,-0.6222124099731445,-0.4297892248675102,-0.06461432064269658,-0.023265919573795306,0.9003138138354164
5.55131483333389,5.543933416665823,-0.013706211932003498,0.09432240575551987,-0.05855337530374527,0.061097096651792526,0.05822726711630821,-0.03256232291460037,-0.13619013130664825,0.7699424624443054,-0.623410701751709,-0.42914311334635563,-0.06427152642944498,-0.02379165574763957,0.9006327693296602
5.553544416667137,5.546162916667527,-0.015995606780052185,0.08976195752620697,-0.050473880022764206,0.06533385813236237,0.0036426421720534563,-0.031100541353225708,-0.1363983452320099,0.7690259218215942,-0.6244955658912659,-0.42851829870701563,-0.06422065189441255,-0.024132462699458644,0.9009247955339902
5.621558333332359,5.614176499999303,-0.013308044523000717,0.09175796806812286,-0.049542319029569626,0.0849292129278183,0.01461103092879057,-0.03894329071044922,-0.13687998056411743,0.7678489089012146,-0.625836968421936,-0.4277232401174468,-0.064298965237452,-0.024521027070059282,0.9012864090834072
5.621740166665404,5.614358666665794,-0.010621649213135242,0.09375673532485962,-0.04861271753907204,0.10452457517385483,0.0255794208496809,-0.04678604379296303,-0.13736027479171753,0.7666692733764648,-0.6271765232086182,-0.4269277593439904,-0.06437724433419698,-0.024909535882821496,0.9016473070513669
5.622178375000658,5.6147968333316385,-0.01674124225974083,0.09678364545106888,-0.025986667722463608,0.11313149333000183,0.014714526012539864,-0.03316957876086235,-0.13753744959831238,0.7652767300605774,-0.6288361549377441,-0.4259705225961427,-0.06427325378192283,-0.02532594488011927,0.902095658322655
5.631596583334613,5.624214958334051,-0.020163461565971375,0.09547188133001328,-0.027089135721325874,0.10851756483316422,-0.05968580022454262,-0.035027965903282166,-0.13826397061347961,0.7637856602668762,-0.6304875612258911,-0.4249507000962217,-0.0645998186360776,-0.025479403664820738,0.9025489349273687
5.666344916666276,5.658963499998208,-0.005685366224497557,0.10525928437709808,-0.07990692555904388,0.05501192435622215,-0.04167196899652481,-0.044969964772462845,-0.13974997401237488,0.7626108527183533,-0.6315810680389404,-0.42418445604094757,-0.06539896725738455,-0.025530196789885894,0.9028503558925781
5.674980166666501,5.667598791667842,-0.006889095529913902,0.09965608268976212,-0.06348730623722076,0.0041656531393527985,0.02005130611360073,-0.04362289607524872,-0.1405002325773239,0.7621667981147766,-0.6319504976272583,-0.42392812880971187,-0.06564832637111251,-0.02588517559916284,0.9029425163071831
5.711738291669462,5.704356916663528,-0.017803991213440895,0.08996015787124634,-0.02670302987098694,0.012436658143997192,0.005513953510671854,-0.04437107592821121,-0.1409924328327179,0.7620299458503723,-0.6320058703422546,-0.4238881718919732,-0.06569530747027799,-0.026367909485246917,0.9029438862900441
5.711925249997876,5.704543791667675,-0.019948231056332588,0.09097075462341309,-0.030706238001585007,0.060456473380327225,-0.033252909779548645,-0.05561622977256775,-0.1420043557882309,0.7614107131958008,-0.6325254440307617,-0.42352051592307866,-0.06608816883203146,-0.02672707275270377,0.9030771530191325
5.748144791665254,5.740763333335053,-0.008811384439468384,0.1109091117978096,-0.052135124802589417,0.07155593484640121,-0.021240005269646645,-0.056658871471881866,-0.14321225881576538,0.7603471279144287,-0.6335316896438599,-0.4228447500353936,-0.06660681454480807,-0.02704805669515405,0.9033461127691039
5.779852874999051,5.7724715000003926,-0.002333487384021282,0.12887714803218842,-0.05703416466712952,0.013798757456243038,0.03684203699231148,-0.03740594536066055,-0.1438780426979065,0.7596304416656494,-0.6342402100563049,-0.4224008564954505,-0.06676384930420547,-0.02749991026535898,0.9035285234816636
5.781915166662657,5.774533458330552,-0.0021644169464707375,0.11874694377183914,-0.01694873347878456,-0.030595755204558372,0.04939878731966019,-0.0193646103143692,-0.14369405806064606,0.759712815284729,-0.6341832876205444,-0.4224859120428425,-0.06643802677094433,-0.027978213526556363,0.903498150003388
5.792873166668869,5.78549162499985,0.002404586412012577,0.08062178641557693,-0.007636758033186197,0.004912867676466703,-0.001609625993296504,-0.04233429580926895,-0.14401838183403015,0.75982266664505,-0.6339781284332275,-0.4226058186573485,-0.06644753128767728,-0.028344394720279054,0.903429956621641
5.85475520833279,5.8473735000006855,0.003966922871768475,0.09076468646526337,-0.006909026764333248,0.04751055687665939,-0.006279198918491602,-0.06249969080090523,-0.14533939957618713,0.7585108280181885,-0.6352462768554688,-0.42177714543444583,-0.06693955422362154,-0.02885908506031285,0.9037645896201252
5.855080333334627,5.847698833335016,0.00552770122885704,0.1009117066860199,-0.006184104830026627,0.09010825306177139,-0.010948767885565758,-0.08266507834196091,-0.14665864408016205,0.7571948170661926,-0.6365118026733398,-0.4209478886500976,-0.06743136678051327,-0.02937362451316236,0.9040979186633834
5.85536670833244,5.84798516666342,-0.0022653858177363873,0.10793523490428925,0.01915884204208851,0.04392093047499657,0.002573226345703006,-0.06054766848683357,-0.14781926572322845,0.756070613861084,-0.6375787258148193,-0.42025501850571095,-0.06779640665895528,-0.029973197982566455,0.9043732104004568
5.936520958333858,5.929139166662935,0.010533243417739868,0.06826543062925339,0.01257243100553751,0.11481590569019318,0.030449792742729187,-0.07652539014816284,-0.14899329841136932,0.7546927332878113,-0.638936460018158,-0.41936394092189794,-0.06830557495257658,-0.03027916239728022,0.9047382680736467
5.936954416669323,5.929573000001255,0.02333129197359085,0.028599565848708153,0.005982600152492523,0.1857108771800995,0.0583263598382473,-0.09250311553478241,-0.15016649663448334,0.753311038017273,-0.6402909755706787,-0.4184722909034899,-0.06881456427440959,-0.030585149218537562,0.9051022714710883
5.93729324999731,5.929911833329243,0.036128684878349304,-0.011062491685152054,-0.0006104845670051873,0.256605863571167,0.08620291948318481,-0.10848083347082138,-0.15133920311927795,0.7519253492355347,-0.6416422128677368,-0.41758010419899183,-0.06932359526461693,-0.03089111236029946,0.9054650106848114
5.946290125000814,5.938908541662386,0.03426015377044678,0.005439786706119776,0.031159812584519386,0.257049560546875,0.18889477849006653,-0.11557040363550186,-0.15123790502548218,0.749688446521759,-0.6442781686782837,-0.41609235523850957,-0.06876100790382086,-0.03199017127843441,0.9061543858944742
5.953900666667323,5.946519041666761,-0.0017862576059997082,0.02216269075870514,0.10634946078062057,0.2035190314054489,0.15456600487232208,-0.08263328671455383,-0.15054886043071747,0.7480201721191406,-0.6463752388954163,-0.41499727798753994,-0.06774689667771044,-0.03337244611241191,0.9066829913290019
6.0016475833326695,5.994265875000565,-0.020570283755660057,-0.016375044360756874,0.13908474147319794,0.18625806272029877,0.002460961462929845,-0.04109812155365944,-0.15041229128837585,0.7462484240531921,-0.648451566696167,-0.4138046137607403,-0.06737924656690115,-0.03401991773859822,0.9072311776858182
6.0018474999960745,5.994465916664922,0.000908415939193219,-0.06967420130968094,0.10498987138271332,0.2350407987833023,-0.09819572418928146,-0.04497275874018669,-0.151430144906044,0.7437009811401367,-0.6511358022689819,-0.4120739762824163,-0.06802315266823604,-0.03385712922162095,0.9079766895452132
6.0183587499996065,6.01097729166213,0.030850214883685112,-0.08883994072675705,0.06860805302858353,0.2745424509048462,0.003926001954823732,-0.06736698746681213,-0.15263263881206512,0.7403299808502197,-0.6546868681907654,-0.40980240530902196,-0.06869182908515536,-0.03386665898643632,0.9089535620569851
6.049724874996173,6.0423433749965625,0.031108610332012177,-0.0661785677075386,0.08486177772283554,0.26153564453125,0.13273289799690247,-0.09003809839487076,-0.15272118151187897,0.7365343570709229,-0.6589335799217224,-0.40725557721997213,-0.06838207642892168,-0.034687694466094446,0.910089921391989
6.060395499996957,6.053013874996395,0.0053948513232171535,-0.059201233088970184,0.13207165896892548,0.2508319318294525,0.12049731612205505,-0.0865790918469429,-0.1520989090204239,0.7329409718513489,-0.6630712151527405,-0.4048523624465714,-0.06752005835178994,-0.03588113051362337,0.9111795538233154
6.090182583335263,6.082801083335653,-0.0012510254746302962,-0.088664710521698,0.15504013001918793,0.3305729925632477,0.04218018800020218,-0.09721053391695023,-0.152238130569458,0.7288852334022522,-0.6674952507019043,-0.4021673764689747,-0.0671845658876853,-0.036857748838478414,0.9123537199251324
6.1295831666648155,6.122201666665205,0.018253982067108154,-0.0957111343741417,0.13343656063079834,0.4285305142402649,0.09628532826900482,-0.1443418562412262,-0.1537989377975464,0.7222290635108948,-0.6743375658988953,-0.39783085467730306,-0.06754132418027017,-0.038093615170432964,0.9141759992415361
6.129718416668766,6.1223369166691555,0.03773263096809387,-0.10269016027450562,0.11177279055118561,0.5264880657196045,0.15039044618606567,-0.19147314131259918,-0.15533362329006195,0.7155053615570068,-0.6811193823814392,-0.39348491376226846,-0.06789652004042708,-0.03932856854157376,0.9159765440697846
6.133202791665099,6.125820958332042,0.034519262611866,-0.09277012944221497,0.1419484168291092,0.5706624388694763,0.23118600249290466,-0.21761944890022278,-0.15580804646015167,0.7074956893920898,-0.6893284916877747,-0.3883331992616105,-0.06732813930554898,-0.04142984384250908,0.918121955012609
6.167038125000545,6.159656124997127,0.021464012563228607,-0.09523724764585495,0.17423249781131744,0.6252428293228149,0.22824688255786896,-0.24482661485671997,-0.15601129829883575,0.6985620856285095,-0.6983348727226257,-0.3826440805865686,-0.06645364682516876,-0.0440050948325731,0.920451554319074
6.222959291662846,6.215577916664188,0.020121941342949867,-0.10490259528160095,0.16897143423557281,0.7361197471618652,0.2117885798215866,-0.25061121582984924,-0.15719951689243317,0.6860653758049011,-0.7103538513183594,-0.3747533410652627,-0.06620425035546712,-0.04657616354652663,0.923584101650702
6.22299158333044,6.215610250001191,0.01867060922086239,-0.11436465382575989,0.16350585222244263,0.8469967246055603,0.19533032178878784,-0.2563958168029785,-0.15827862918376923,0.6733655333518982,-0.7221681475639343,-0.36683318580988966,-0.06594965081925612,-0.04914351009055823,0.9266439604808029
6.223059958334488,6.21567858333583,0.017110157757997513,-0.12362726032733917,0.15783178806304932,0.9578737020492554,0.17887206375598907,-0.2621804177761078,-0.1592484712600708,0.6604661345481873,-0.7337740659713745,-0.3588841125243519,-0.06568997589530252,-0.05170700094244955,0.929630753922211
6.235207458332297,6.227825958332687,0.016975710168480873,-0.11267980188131332,0.15281429886817932,0.9734851717948914,0.2119169384241104,-0.22604143619537354,-0.1597287505865097,0.6457503437995911,-0.7466546297073364,-0.34986614716504766,-0.06531734689192496,-0.05409605580507345,0.9329527793874607
6.272513541669468,6.265131749998545,0.014153687283396721,-0.09748966246843338,0.17717929184436798,0.9326531887054443,0.22339729964733124,-0.16677524149417877,-0.15905439853668213,0.6308653354644775,-0.7594146728515625,-0.34077716989695883,-0.06452595991873421,-0.05609203208024387,0.9362483177738545
6.27285808333545,6.265476499997021,0.006736962124705315,-0.0933421328663826,0.1839713454246521,0.8643966913223267,0.15021741390228271,-0.10056386142969131,-0.15794071555137634,0.6167237758636475,-0.7711721658706665,-0.33218421538992043,-0.06377756371549091,-0.05738932461203579,0.9393042707179033
6.300993208329601,6.2936117083299905,0.006991226691752672,-0.09650930762290955,0.17169630527496338,0.796835720539093,0.0871095210313797,-0.03513570874929428,-0.15695486962795258,0.6036617159843445,-0.7816378474235535,-0.3242898004072146,-0.06338145502343784,-0.05787589770189461,0.9420559222923681
6.3326454583293526,6.3252638333287905,0.020124221220612526,-0.11438701301813126,0.17788778245449066,0.762657105922699,0.06781598925590515,0.019976576790213585,-0.15569113194942474,0.5914769768714905,-0.7911480665206909,-0.3169374804105342,-0.06306028065883171,-0.057675554624356765,0.9445885922009176
6.332698500002152,6.325317124996218,0.030875399708747864,-0.13160166144371033,0.16605743765830994,0.7422232627868652,0.08017567545175552,0.04121573641896248,-0.15427438914775848,0.5796018838882446,-0.8001631498336792,-0.30980455884798275,-0.06276590632849104,-0.05712496519149244,0.9470049429779991
6.369808499999635,6.362426708328712,0.03478066623210907,-0.1369789093732834,0.1544359177350998,0.7333321571350098,0.07463586330413818,0.0305941104888916,-0.15262725949287415,0.5678354501724243,-0.8088682293891907,-0.30278321827265303,-0.06235556228374314,-0.0565331036413812,0.9493356084755983
6.380509000002348,6.373127499995462,0.030205802991986275,-0.13426107168197632,0.1503024399280548,0.7285804748535156,0.09846452623605728,0.027035152539610863,-0.1507721245288849,0.5560964941978455,-0.8173276782035828,-0.2958352519738949,-0.06178737785328431,-0.05607837269970419,0.95158765912036
6.414179749997857,6.406798041665752,0.02225096896290779,-0.13067680597305298,0.14310681819915771,0.7380508184432983,0.09813213348388672,0.02141539379954338,-0.1488303542137146,0.5441246032714844,-0.8256984353065491,-0.2888092769631031,-0.06115549468849573,-0.05569300126936783,0.9538067949068838
6.414761416664987,6.407379874995968,0.02457134798169136,-0.12606178224086761,0.1264192909002304,0.7547358870506287,0.08135084807872772,0.00983344204723835,-0.14720483124256134,0.5317326784133911,-0.8340210318565369,-0.2816140140310381,-0.060688085671787254,-0.055338961939667634,0.9560062900919669
6.446405875001801,6.439024083330878,0.0310358926653862,-0.12216158956289291,0.10133682936429977,0.7594095468521118,0.10473782569169998,0.00295257568359375,-0.1456274390220642,0.5190469622612,-0.8422487378120422,-0.2743149001504198,-0.06022440290929756,-0.055077128327405515,0.9581705455441549
6.457966624999244,6.45058491666714,0.03321719169616699,-0.11820575594902039,0.08121638745069504,0.7582806348800659,0.13564997911453247,-0.0031190167646855116,-0.14358386397361755,0.5061448812484741,-0.8504123091697693,-0.2669373245146219,-0.059483792665287596,-0.05495422980521317,0.9603052620356057
6.527282041664876,6.519900458333723,0.03242884948849678,-0.11439581215381622,0.05852562189102173,0.7360261082649231,0.1419360637664795,0.005213987547904253,-0.14084742963314056,0.4936741590499878,-0.8581653833389282,-0.2598312134892531,-0.05835281836927834,-0.05491805408965101,0.9623235681181512
6.527659333332849,6.520277833333239,0.03161697834730148,-0.11047393828630447,0.03564321622252464,0.7137715816497803,0.1482221931219101,0.01354700606316328,-0.1380874216556549,0.48109158873558044,-0.8657267093658447,-0.2527106355938827,-0.05721860571221003,-0.0548789343698287,0.9642882248407031
6.528145500000392,6.520763916669239,0.030781926587224007,-0.1064428836107254,0.012567451223731041,0.6915169954299927,0.1545083075761795,0.021880047395825386,-0.13530436158180237,0.46839970350265503,-0.8730947375297546,-0.2455758977208806,-0.05608122271558785,-0.05483669577338652,0.9661988982448695
6.554017333335651,6.546635749997222,0.02893386408686638,-0.10784070193767548,-0.0019113450543954968,0.6564741730690002,0.13799306750297546,0.033561162650585175,-0.1324382722377777,0.456402450799942,-0.8798618912696838,-0.2388535782456933,-0.05493665215404093,-0.05460493784320544,0.9679613662756882
6.55841062500258,6.551029041664151,0.026098385453224182,-0.10857529193162918,-0.017169814556837082,0.5961282253265381,0.11485258489847183,0.05287490040063858,-0.1297958344221115,0.44533905386924744,-0.8859041333198547,-0.23267665133490867,-0.053939823028570436,-0.054155787482430565,0.9695458842797378
6.576193708329811,6.5688122083302005,0.025717834010720253,-0.11001558601856232,-0.007374553009867668,0.5192174911499023,0.08254163712263107,0.0750020295381546,-0.12737588584423065,0.4355061948299408,-0.8911283612251282,-0.22719566385366108,-0.05308445352051586,-0.053463328035530396,0.9709303851841529
6.608750749997853,6.601369124997291,0.021180957555770874,-0.10837609320878983,-0.0069427527487277985,0.4140584468841553,0.02333587408065796,0.08154318481683731,-0.12570585310459137,0.4272988438606262,-0.8953288197517395,-0.22263523374619643,-0.05262254978147005,-0.052555044923428954,0.9720609025789197
6.646508583333343,6.6391270000021905,0.017231600359082222,-0.09072203934192657,-0.009815430268645287,0.28036728501319885,-0.029352568089962006,0.08220645785331726,-0.12547454237937927,0.4220041334629059,-0.8978689312934875,-0.21970598415974535,-0.052865952566227795,-0.051481489925188674,0.9727713714105846
6.64692062499671,6.639538999996148,0.013292934745550156,-0.07305219024419785,-0.012720512226223946,0.14667609333992004,-0.08204101771116257,0.08286973088979721,-0.12525393068790436,0.4166935980319977,-0.900376558303833,-0.21677450086384328,-0.0531088175698649,-0.05040736860382306,0.9734718602947271
6.6794247916695895,6.672043166669027,0.006973042152822018,-0.04760206863284111,-0.02022058330476284,0.03194959834218025,-0.08887182921171188,0.08158939331769943,-0.1256970912218094,0.41380631923675537,-0.9016454815864563,-0.2151765171600316,-0.05363145881149184,-0.049352363598112056,0.9738516188728772
6.68545820833242,6.678076541662449,-0.0012970620300620794,-0.016008352860808372,-0.01929309405386448,-0.045378558337688446,-0.08492641150951385,0.09204071015119553,-0.12619437277317047,0.4125045835971832,-0.902172327041626,-0.21443692610419,-0.05413528142733461,-0.04834709207824378,0.9740373794638438
6.716119583332329,6.708738166664261,-0.00970834493637085,-0.00022244808496907353,-0.015083538368344307,-0.062281377613544464,-0.0604742206633091,0.10295681655406952,-0.1263270378112793,0.41199547052383423,-0.9023864269256592,-0.21410799168428366,-0.054447840826019514,-0.04728200774222326,0.974144588895912
6.716430541666341,6.709049083328864,-0.014051564037799835,0.010267351754009724,-0.013432387262582779,-0.019054826349020004,-0.042570699006319046,0.10315129160881042,-0.1261061728000641,0.41129010915756226,-0.9027389883995056,-0.21366228087027067,-0.054579590736071174,-0.04622704334043779,0.9742857115529806
6.7551797083360725,6.747798124997644,-0.013045535422861576,0.024320868775248528,-0.011929529719054699,0.03988286852836609,-0.011951029300689697,0.10283145308494568,-0.12546522915363312,0.40999820828437805,-0.9034157395362854,-0.21288841640480005,-0.05450380218838278,-0.045179551085440126,0.9745084313240027
6.7552373750004335,6.747856000001775,-0.004231912549585104,0.027543291449546814,-0.020044954493641853,0.07984020560979843,0.01891488954424858,0.09854883700609207,-0.12459985911846161,0.4085305333137512,-0.90420001745224,-0.21201619753719114,-0.054305748564686826,-0.04417155671449371,0.9747558724203147
6.775197750001098,6.767816291663621,0.004128205589950085,0.016921179369091988,-0.009998105466365814,0.11182226985692978,0.05283552035689354,0.0878804475069046,-0.12334711104631424,0.4068530201911926,-0.9051277041435242,-0.21102793817798976,-0.05388290479350529,-0.04329256509613023,0.975033145154562
6.825370666665549,6.817989041664987,0.007285726256668568,0.005205722525715828,0.0016315123066306114,0.13109560310840607,0.05821949243545532,0.06233565881848335,-0.12204857915639877,0.4049738347530365,-0.9061458706855774,-0.209943812817727,-0.05339159611040948,-0.042631540289954986,0.9753232389916237
6.830658500002755,6.8232767500012415,0.008442910388112068,-0.003213424701243639,0.00933805387467146,0.1314242035150528,0.0385131910443306,0.030837388709187508,-0.12108543515205383,0.40313106775283813,-0.907096266746521,-0.2089044763836206,-0.053016753199798206,-0.0422221040354844,0.9755847188543875
6.840230875000998,6.832848999998532,0.009334860369563103,-0.008772172033786774,0.010778707452118397,0.11471038311719894,0.017900584265589714,0.0007998289656825364,-0.12066543847322464,0.4015013873577118,-0.9078747034072876,-0.2080109191084215,-0.052859324950601,-0.042080056772658504,0.9757901836062739
6.875303958331642,6.8679225416635745,0.00818055123090744,-0.011993926018476486,0.01609875075519085,0.09141433238983154,-0.016779446974396706,-0.02993675321340561,-0.12067577242851257,0.4000885486602783,-0.9084968566894531,-0.2072589917737725,-0.052870521777135526,-0.04216521737001945,0.9759459502423127
6.887618499997188,6.88023712499853,0.006342796608805656,-0.01149539090692997,0.013791684992611408,0.06833775341510773,-0.035757843405008316,-0.049667470157146454,-0.12138179689645767,0.3988717198371887,-0.9089377522468567,-0.2066437278473923,-0.05319309720123812,-0.042449703053239175,0.9760465129792572
6.905154458334437,6.89777299999696,0.0025207253638654947,-0.011826500296592712,0.01601007580757141,0.04601497948169708,-0.050797559320926666,-0.05511229485273361,-0.12241657823324203,0.3978954553604126,-0.9092267751693726,-0.20617262508259906,-0.05366049110427307,-0.0428285247513227,0.9761040397001493
6.915859499997168,6.908478083329101,0.002023270120844245,-0.01781574822962284,0.017534788697957993,0.024003108963370323,-0.06477499008178711,-0.04870036244392395,-0.12369896471500397,0.3971482217311859,-0.9093798995018005,-0.20583091001090706,-0.054255628469275764,-0.043186305291832185,0.9761274783740643
6.957224916666746,6.949843249996775,-0.00041249170317314565,-0.025656504556536674,0.014832676388323307,-5.069859616924077e-05,-0.06290404498577118,-0.03269028663635254,-0.12506429851055145,0.3968204855918884,-0.909336268901825,-0.20571139648482187,-0.054906252017483524,-0.043448752277924635,0.9761046890646373
6.957504666665045,6.950123083333892,-0.0053710415959358215,-0.03306180611252785,0.015745477750897408,-0.02926577813923359,-0.06835480034351349,-0.009894470684230328,-0.12621694803237915,0.39697548747062683,-0.9091092944145203,-0.20583289540111818,-0.055481246942571824,-0.04351277905086362,0.9760436307506899
7.0126145416652435,7.005233166666585,-0.006064412649720907,-0.04912865161895752,0.0009620640194043517,-0.07415705174207687,-0.06710457056760788,0.015544296242296696,-0.12754523754119873,0.3982907235622406,-0.9083483219146729,-0.20655928102273352,-0.05620588294451338,-0.043200228445599176,0.9758625732435401
7.012668666662648,7.005287333333399,-0.006759428884834051,-0.06519496440887451,-0.01382540725171566,-0.11904832720756531,-0.06585434824228287,0.040983062237501144,-0.12887178361415863,0.3996054232120514,-0.9075833559036255,-0.20728541222897465,-0.05693043940343641,-0.04288761596796497,0.9756804630392754
7.015095791663043,7.0077143750022515,-0.0023622980806976557,-0.08584138005971909,-0.0004327280621509999,-0.15448938310146332,-0.055967703461647034,0.051871445029973984,-0.12958869338035583,0.401719331741333,-0.906547486782074,-0.2084104663391977,-0.057370106549470466,-0.04238475033835206,0.9754369989460743
7.0367425000004005,7.029361083332333,0.001085680560208857,-0.1018136739730835,0.00827835127711296,-0.20498234033584595,-0.035484153777360916,0.05547655001282692,-0.13008320331573486,0.4046267867088318,-0.9051826000213623,-0.2099569756673469,-0.057678246272143026,-0.04190910894327733,0.9751076204211854
7.0728360833309125,7.065454541669169,-0.0020651414524763823,-0.10746774822473526,0.02215634100139141,-0.2713669240474701,-0.046444330364465714,0.054647643119096756,-0.13046146929264069,0.4084435999393463,-0.9034122228622437,-0.21199220023268828,-0.05790677629655984,-0.04146656217985958,0.9746726579375877
7.123579375002009,7.116197583331086,0.002127063926309347,-0.10775893926620483,0.024176007136702538,-0.38177967071533203,-0.05328528583049774,0.05559806525707245,-0.1311308741569519,0.4147750735282898,-0.9004256725311279,-0.21539633621139073,-0.058237413596113945,-0.04107165685941804,0.973923006904597
7.123794749997614,7.116413291667413,0.006309395655989647,-0.10802997648715973,0.026151498779654503,-0.49219247698783875,-0.060126252472400665,0.05654848366975784,-0.13179054856300354,0.4210863709449768,-0.8973948359489441,-0.21879775947852376,-0.05856725862274352,-0.04067635565799566,0.973161222865182
7.124605083336064,7.117223624998587,0.010245631448924541,-0.11220792680978775,0.03952934965491295,-0.5902349948883057,-0.05294269323348999,0.05680764839053154,-0.13241760432720184,0.4295584559440613,-0.8932777047157288,-0.22338273798707217,-0.0588327432838264,-0.040363721347852065,0.9721160049740797
7.17027704166685,7.162895458335697,0.00875476561486721,-0.10601145774126053,0.043816618621349335,-0.6671280264854431,-0.07442115247249603,0.0543791763484478,-0.13344377279281616,0.4412055015563965,-0.8874291181564331,-0.22972882488860225,-0.05924614545578932,-0.04011832825218583,0.9706209642982223
7.170365958336333,7.162984541668266,0.0072439080104231834,-0.0997391790151596,0.047951940447092056,-0.7440210580825806,-0.09589959681034088,0.05195070058107376,-0.13444997370243073,0.4527767598628998,-0.881428599357605,-0.23606507576631877,-0.059657107765174126,-0.039871272751164435,0.9690844328326104
7.177944541668694,7.1705629999996745,0.00800233706831932,-0.0908697172999382,0.04956347495317459,-0.8226791620254517,-0.11713457107543945,0.052843645215034485,-0.13595423102378845,0.4661383032798767,-0.8742033243179321,-0.2434353288562706,-0.06031229259706427,-0.03960514386050392,0.9672295304094152
7.221144833332801,7.213763250001648,0.014568541198968887,-0.09237199276685715,0.06518689543008804,-0.8946177959442139,-0.11849089711904526,0.0683802142739296,-0.1374759078025818,0.4810250997543335,-0.8658609986305237,-0.25169456177833216,-0.06098658323443228,-0.03925674609025134,0.9650851782383693
7.22139949999837,7.214017916667217,0.02120513655245304,-0.11094891279935837,0.07389097660779953,-0.9425357580184937,-0.11339529603719711,0.07513360679149628,-0.1387818455696106,0.496957004070282,-0.8566057085990906,-0.260588882438442,-0.06156760978270575,-0.038833854789947574,0.9627019000776591
7.2628709166674525,7.2554892916668905,0.025522122159600258,-0.1248537227511406,0.08425227552652359,-0.9753400683403015,-0.1025911420583725,0.06877054274082184,-0.1398230642080307,0.5134701132774353,-0.8466392159461975,-0.26988077635922664,-0.06200605340275049,-0.03845380031066125,0.9601255118873845
7.263163124996936,7.255781708328868,0.028656572103500366,-0.12282208353281021,0.1007554680109024,-1.0099962949752808,-0.08297644555568695,0.05995795130729675,-0.14064039289951324,0.5303555130958557,-0.8360283374786377,-0.27947244982761377,-0.06229763350869963,-0.038209174623954116,0.9573684009931718
7.303735916662845,7.296354500002053,0.03186875209212303,-0.11796773970127106,0.10046889632940292,-1.0594712495803833,-0.09045959264039993,0.05149874836206436,-0.141526460647583,0.5476826429367065,-0.8246296048164368,-0.2894253505141288,-0.06259524125955791,-0.03808521990918845,0.9543921040758773
7.303833124999073,7.296451708331006,0.03696461394429207,-0.1241040751338005,0.10623970627784729,-1.0828149318695068,-0.08349558711051941,0.04343167692422867,-0.14248627424240112,0.5654114484786987,-0.812408447265625,-0.2997304498040627,-0.06290803516292708,-0.03805371688748575,0.9511866533060546
7.339676499999769,7.3322947083288454,0.03441045805811882,-0.13863858580589294,0.11943505704402924,-1.050264596939087,-0.07938605546951294,0.034223079681396484,-0.14328107237815857,0.5828091502189636,-0.7998775243759155,-0.30996177044716067,-0.06312640496431388,-0.038081730775044724,0.9478864209962126
7.340064916665142,7.332683374996122,0.028568433597683907,-0.13301941752433777,0.14110317826271057,-0.9813001751899719,-0.09348759800195694,0.013319345191121101,-0.14420633018016815,0.5990726947784424,-0.7876017093658447,-0.3196555715773469,-0.06339933687531918,-0.0382091021649501,0.9446379478101946
7.378195874996891,7.37081441666669,0.02973358705639839,-0.10133209079504013,0.13250340521335602,-0.9364614486694336,-0.11129386723041534,-0.0005158916465006769,-0.14595924317836761,0.6140632629394531,-0.7756430506706238,-0.3287396032001882,-0.06409941554655965,-0.03842756138543377,0.9414588405026728
7.378951375001634,7.371569791663205,0.030976194888353348,-0.0777776688337326,0.1425715982913971,-0.9023399353027344,-0.12121119350194931,0.0070043643936514854,-0.1476251631975174,0.628226637840271,-0.7638967037200928,-0.33742349114212006,-0.06478459489004876,-0.03859662832012446,0.9383276603438218
7.379715208335256,7.372333666666236,0.032190464437007904,-0.05400519445538521,0.1523779332637787,-0.8682184219360352,-0.13112854957580566,0.014524605125188828,-0.14926263689994812,0.6421716213226318,-0.7518884539604187,-0.3460783553870198,-0.06546412120419788,-0.03876228743811081,0.9351158186435445
7.425699416664429,7.4183178749954095,0.03107750229537487,-0.0866517648100853,0.08866570889949799,-0.8265042901039124,-0.16238254308700562,0.02527301199734211,-0.15144991874694824,0.6549082398414612,-0.7403770685195923,-0.3540889840976749,-0.06657671968337912,-0.03861411707658275,0.9320394795919656
7.425787916668924,7.418406458331447,0.03853815793991089,-0.11530463397502899,0.11557197570800781,-0.7027816772460938,-0.07160347700119019,0.023193160071969032,-0.1526309996843338,0.6663492321968079,-0.7298510074615479,-0.3613344148628608,-0.06717094797177742,-0.03846591344252859,0.9292179214021015
7.4458898333323305,7.43850833333272,0.02362307533621788,-0.08415793627500534,0.06739971786737442,-0.6367934942245483,-0.08613400906324387,-0.01287029404193163,-0.15398450195789337,0.6759294271469116,-0.7206998467445374,-0.367498531214551,-0.06778570442240338,-0.038563279952494076,0.9267485990807021
7.459033916667977,7.451652333329548,0.021481774747371674,-0.09150964021682739,0.06800788640975952,-0.5853795409202576,-0.017816733568906784,-0.00649558799341321,-0.15478301048278809,0.6847103238105774,-0.7121896147727966,-0.37319615267009953,-0.0680428995287889,-0.03882677450021944,0.9244389646886002
7.498647208332841,7.491265291668242,0.02346092276275158,-0.07258973270654678,0.10545872896909714,-0.5179620981216431,-0.015667088329792023,-0.03700646013021469,-0.15526464581489563,0.6924532055854797,-0.7045576572418213,-0.378276687622459,-0.0680288510453078,-0.03935184623668872,0.9223504195707463
7.498986624996178,7.491605083334434,0.020926475524902344,-0.06272514164447784,0.08668987452983856,-0.458933562040329,-0.02764550782740116,-0.029829634353518486,-0.15635648369789124,0.6992486119270325,-0.6975701451301575,-0.38281202974259354,-0.06833654498561983,-0.03991308227286238,0.9204304463370185
7.530370791668247,7.522989208329818,0.014749317429959774,-0.09542616456747055,0.10429468005895615,-0.34017321467399597,-0.06701963394880295,-0.025868747383356094,-0.15705683827400208,0.7047698497772217,-0.6918328404426575,-0.38650534943460346,-0.06853610903955248,-0.040241572717913635,0.9188564084950528
7.56713904166827,7.559757249997347,0.013741442002356052,-0.08729254454374313,0.08091864734888077,-0.2782159149646759,-0.05561550334095955,-0.02155080996453762,-0.15852515399456024,0.708911657333374,-0.687251091003418,-0.3893376211416582,-0.06921473931666333,-0.04045632780426609,0.9175995196835863
7.567212624999229,7.559831291662704,0.01672004908323288,-0.06787260621786118,0.10544557124376297,-0.2628210186958313,-0.06773465126752853,-0.016110314056277275,-0.1594221442937851,0.712510883808136,-0.6833102107048035,-0.39178822174714395,-0.06961958175094278,-0.04059180972357095,0.9165191823090888
7.583530124997196,7.576148583335453,0.030854620039463043,-0.043985527008771896,0.08105888962745667,-0.3202468454837799,-0.04201170802116394,-0.006194398272782564,-0.1603831648826599,0.7164111137390137,-0.6789935827255249,-0.39444919326395267,-0.07009307332079182,-0.04064578400958832,0.9153385691643454
7.620935541664949,7.613553958333796,0.039365652948617935,-0.03989099711179733,0.10330405831336975,-0.37167292833328247,-0.016300460323691368,0.014701339416205883,-0.1604626178741455,0.7212200164794922,-0.6738646030426025,-0.397691136696819,-0.07006763139833522,-0.040720464341255196,0.9139333497629657
7.621303166662983,7.61392162500124,0.038782645016908646,-0.04607715457677841,0.05214976519346237,-0.42665567994117737,0.0038918303325772285,0.013503814116120338,-0.16051234304904938,0.7266052961349487,-0.6680423021316528,-0.40134643088057587,-0.06999925872633013,-0.04084626007707056,0.9123336427921652
7.648861749999924,7.641480041667819,0.026165828108787537,-0.0477314218878746,0.07464767247438431,-0.43559014797210693,0.03011607751250267,0.015245242044329643,-0.15988431870937347,0.7324374914169312,-0.6617947220802307,-0.4053089398391284,-0.06947881302148226,-0.0411396828642561,0.9106068203661369
7.680872458331578,7.673491000001377,0.01824028231203556,-0.05422009900212288,0.036947764456272125,-0.4603322148323059,-0.019717732444405556,0.022028828039765358,-0.15954245626926422,0.7384184002876282,-0.6551980376243591,-0.40940693994602184,-0.06918775152542467,-0.0412650903206759,0.9087883401538295
7.68092820833408,7.673546833335422,0.016376744955778122,-0.08191575109958649,0.07369470596313477,-0.4148302674293518,-0.024095958098769188,0.015549227595329285,-0.15926986932754517,0.7443114519119263,-0.6485627293586731,-0.413477908949841,-0.06895409403858589,-0.041348067545734564,0.9069573761180606
7.720830958329316,7.713449374998163,0.005127026233822107,-0.05543992668390274,0.07907925546169281,-0.38697776198387146,-0.0674356147646904,-0.009958072565495968,-0.1597895473241806,0.7494896054267883,-0.6424426436424255,-0.417125789601303,-0.06917183460728517,-0.0414164963877366,0.905265667122573
7.721546708329697,7.714165166667954,0.001530459732748568,-0.00035778008168563247,0.05334533378481865,-0.4081800878047943,-0.09909334778785706,0.0025454165879637003,-0.1612166166305542,0.7544354200363159,-0.6362674832344055,-0.4206855364734939,-0.0699280181320248,-0.04141870812867312,0.9035585896701996
7.763707458332647,7.756325708331133,-0.009445928037166595,0.011739635840058327,0.050481557846069336,-0.4128141701221466,-0.141990527510643,0.042175110429525375,-0.16222986578941345,0.759726881980896,-0.6296796798706055,-0.42446244047378645,-0.07065267058665979,-0.04100166588700038,0.9017531365977209
7.7639601249975385,7.756578541666386,-0.0010066197719424963,0.01036028377711773,0.018116895109415054,-0.3910883665084839,-0.11214327812194824,0.08165360987186432,-0.16293387115001678,0.7650644779205322,-0.6229998469352722,-0.4282522618079233,-0.07141486182617354,-0.04015867098525428,0.8999372828181245
7.785207708329835,7.777826124998683,0.0037965569645166397,0.0010086668189615011,0.0010679919505491853,-0.3314692974090576,-0.035190872848033905,0.0916600301861763,-0.16262982785701752,0.7697810530662537,-0.6172428131103516,-0.43156516512109083,-0.0716247973589138,-0.03931985390587636,0.898373728230851
7.822095999996236,7.814714583335444,0.004951693117618561,0.01425390038639307,0.03410064056515694,-0.2599925100803375,0.014410100877285004,0.08675568550825119,-0.16130967438220978,0.7737589478492737,-0.6125980019569397,-0.4343253453565948,-0.07115132200214129,-0.03873730382725057,0.8971055960046413
7.822708833329671,7.815327416668879,-0.0023361872881650925,0.035642556846141815,0.043394554406404495,-0.2194533497095108,-0.00615004263818264,0.08139276504516602,-0.16020306944847107,0.7770785093307495,-0.6086739897727966,-0.43663757429403094,-0.07078591095115844,-0.03818930961766508,0.8960349414466978
7.858144208330486,7.85076237499743,-6.820836279075593e-05,0.03427911922335625,0.025038499385118484,-0.19546575844287872,-0.07718919962644577,0.06984800845384598,-0.15975551307201385,0.7798286080360413,-0.6052647829055786,-0.4385682441919043,-0.07089085879208061,-0.03744528962003595,0.8951146132642546
7.86153633333015,7.8541549166620825,-0.008728056214749813,0.022903665900230408,0.009835687465965748,-0.15731266140937805,-0.07990050315856934,0.06512615084648132,-0.1596435159444809,0.781982421875,-0.6025092601776123,-0.4400811958203055,-0.07123147461521556,-0.03661557424964136,0.8943790504264343
7.892961375000596,7.885579791662167,-0.01840997487306595,0.018732920289039612,0.02116011083126068,-0.08857519179582596,-0.09783652424812317,0.051888998597860336,-0.1596687138080597,0.783893346786499,-0.6000141501426697,-0.4414287240520959,-0.07164919076497192,-0.03579385085799924,0.8937145785588333
7.92364062499837,7.916259083329351,-0.010917375795543194,0.03206425905227661,-0.006431169342249632,-0.05265742167830467,-0.07719247788190842,0.02767178975045681,-0.1601146012544632,0.7854163646697998,-0.5979001522064209,-0.442523289694632,-0.07227084504136783,-0.035045377039362044,0.8931528556261213
7.923934458332951,7.916552875001798,-0.025460204109549522,0.0725906640291214,-0.0036359436344355345,-0.07740969210863113,-0.029344916343688965,0.03764753416180611,-0.16010645031929016,0.7868167161941528,-0.5960582494735718,-0.44352679474456547,-0.07249038841726148,-0.03459620794037729,0.892654659358201
7.964350666668906,7.956969124999887,-0.034565676003694534,0.08255313336849213,0.017294056713581085,-0.11670379340648651,-0.060867469757795334,0.06079896166920662,-0.15982431173324585,0.7884262204170227,-0.5940036177635193,-0.4446657620394027,-0.07259851003544514,-0.034063939886505926,0.8920995095340354
7.964416124996205,7.957034708335414,-0.036728158593177795,0.09239082038402557,0.005421553738415241,-0.12629126012325287,-0.13917765021324158,0.06190250813961029,-0.16029475629329681,0.7902572154998779,-0.5914381742477417,-0.44599024506237894,-0.07330499286142665,-0.03318983152434341,0.8914132134464094
8.019235958330682,8.011854291667987,-0.04491431266069412,0.10823924839496613,-0.011958078481256962,-0.10943848639726639,-0.09803056716918945,0.06751808524131775,-0.16056238114833832,0.7918223142623901,-0.5892683267593384,-0.44709180251607133,-0.07399160232401064,-0.03213271910464273,0.8908432764316316
8.019724666664843,8.012343124995823,-0.05310783162713051,0.12409228086471558,-0.029341882094740868,-0.09258570522069931,-0.05688347667455673,0.07313364744186401,-0.16082283854484558,0.7933826446533203,-0.5870944857597351,-0.44819185967779634,-0.07467800804030658,-0.031075511661276776,0.8902705168625323
8.026053291665448,8.018671624995477,-0.055282674729824066,0.13847029209136963,-0.017551356926560402,-0.07630595564842224,-0.017133060842752457,0.05878126621246338,-0.1603592485189438,0.7945693135261536,-0.5856145024299622,-0.449002041867029,-0.07476570990137543,-0.030394623663206295,0.8898782526570865
8.045572458329843,8.038190958330233,-0.03854917734861374,0.13171839714050293,-0.0026703558396548033,-0.04527534171938896,-0.003624460892751813,0.039275020360946655,-0.15964375436306,0.7954920530319214,-0.5845563411712646,-0.44961797454118124,-0.07460233325343651,-0.029927382908784553,0.8895967726147203
8.079052708329982,8.07167129166919,-0.028053559362888336,0.14412012696266174,-0.005859397351741791,-0.0077048703096807,0.042936429381370544,0.05469781160354614,-0.15872548520565033,0.7959990501403809,-0.5841161012649536,-0.44992290731368767,-0.07423828940741115,-0.029625159136532728,0.8894831792356992
8.082154833333334,8.074773416665266,-0.029610678553581238,0.13843286037445068,-0.01826823316514492,0.03878413513302803,-0.005543987266719341,0.0707864835858345,-0.1575089395046234,0.7960073947906494,-0.584433913230896,-0.44982002458414944,-0.07379015674615812,-0.029148591658276497,0.8895882175198385
8.115818375001254,8.108436750000692,-0.02910846471786499,0.14470891654491425,-0.0569208562374115,0.052091822028160095,0.0008629619260318577,0.07469365000724792,-0.1563679575920105,0.7956768870353699,-0.585189938545227,-0.44944810101680216,-0.07349439257998375,-0.028450367723789935,0.8898232802287279
8.144751458334213,8.137369874995784,-0.0417083315551281,0.15662720799446106,-0.0543728731572628,0.04333362728357315,0.012784512713551521,0.09888827800750732,-0.15467704832553864,0.7954339981079102,-0.585969090461731,-0.4491082901016708,-0.07291909229095093,-0.02768977647509159,0.8900662136684908
8.14495258333045,8.137571041668707,-0.04746725410223007,0.15187233686447144,-0.0349414199590683,0.05255229026079178,-0.04594910144805908,0.11562209576368332,-0.153013676404953,0.7952491641044617,-0.5866562724113464,-0.448793437652274,-0.07250037013250987,-0.02665016320425354,0.8902909778802539
8.176076791663945,8.16869508333184,-0.034397952258586884,0.12407150864601135,-0.060197532176971436,0.07278236746788025,-0.0618911013007164,0.1285402476787567,-0.15171994268894196,0.7949257493019104,-0.5874300003051758,-0.4483648484918501,-0.0724842436822183,-0.025223112938433885,0.8905496406750494
8.20433041666547,8.196948999997403,-0.04414549469947815,0.10531854629516602,-0.07252901047468185,0.11840356886386871,-0.05452481284737587,0.09503365308046341,-0.15051798522472382,0.7940961718559265,-0.5888595581054688,-0.4475683602518799,-0.0724761043802638,-0.023870419578406,0.890988173926367
8.20448100000067,8.19709962500201,-0.04833899810910225,0.1166871041059494,-0.0463787317276001,0.12840498983860016,-0.04077315703034401,0.08091127872467041,-0.14922860264778137,0.7929937839508057,-0.5906705260276794,-0.4465897511459394,-0.07226576907862516,-0.02281209682569883,0.8915238810394843
8.242251708332333,8.234870000000228,-0.036413028836250305,0.12345456331968307,-0.07164039462804794,0.09061311185359955,0.025025203824043274,0.053132060915231705,-0.14855684340000153,0.7918575406074524,-0.5923618674278259,-0.4456463367239648,-0.07223863026907928,-0.022081137517563527,0.8920164870194427
8.242354333335243,8.234972916667175,-0.031051144003868103,0.10154785960912704,-0.04537311941385269,0.11210226267576218,0.033338192850351334,0.03553062304854393,-0.1476372480392456,0.7907608151435852,-0.5940543413162231,-0.4447565655463325,-0.07186389448663857,-0.021765198189298188,0.8924984527501834
8.276247624999087,8.268866083330067,-0.0008248509839177132,0.06772888451814651,-0.09149840474128723,0.1679358333349228,0.04719596356153488,-0.009255638346076012,-0.14715442061424255,0.7890201807022095,-0.5964836478233337,-0.4434280968169648,-0.07162202606559806,-0.021662524883329617,0.8931811247812778
8.333883083330875,8.326501458330313,-0.026325706392526627,0.0958738774061203,-0.0740785077214241,0.14476513862609863,0.06150605529546738,-0.015798605978488922,-0.14626258611679077,0.7868738770484924,-0.5995304584503174,-0.4418465959867947,-0.07075557652304383,-0.022348555238395483,0.8940167131370027
8.333995916669664,8.326614500001597,-0.051835063844919205,0.1240287721157074,-0.05666815862059593,0.12159443646669388,0.07581614702939987,-0.022341569885611534,-0.14536230266094208,0.784717321395874,-0.6025681495666504,-0.4402629604048512,-0.06988880865557313,-0.02303459409798838,0.8948482545261959
8.334123458334943,8.326741999997466,-0.03754683583974838,0.14646291732788086,-0.07369380444288254,0.037610601633787155,0.030239369720220566,-0.01541817281395197,-0.14533162117004395,0.7835280299186707,-0.6041212677955627,-0.4394142134153913,-0.06967429149544327,-0.02341378863468422,0.8952722632443539
8.345648958333186,8.338267541665118,-0.022743791341781616,0.1346154808998108,-0.07157716155052185,0.006569831166416407,0.013365892693400383,-0.012548236176371574,-0.14544975757598877,0.7832049131393433,-0.6045117974281311,-0.4391986509463311,-0.06963229677542167,-0.02362898411588826,0.8953756835685833
8.377273375001096,8.369891791662667,-0.02697627805173397,0.11897721886634827,-0.059892233461141586,0.01820152997970581,0.013329724781215191,-0.0027198733296245337,-0.1453249603509903,0.7830559015274048,-0.6047347784042358,-0.4390955477979451,-0.0694818404212111,-0.023790045496498873,0.8954336639074577
8.407353083333874,8.399971541664854,-0.029269643127918243,0.11744341999292374,-0.05560869351029396,0.03906071558594704,0.004837163258343935,0.0003142916248179972,-0.14502806961536407,0.7827498316764832,-0.6052021384239197,-0.43885778400594594,-0.06930218533622949,-0.02381073165768125,0.8955635751958421
8.407593958334473,8.400212416665454,-0.026519300416111946,0.13504089415073395,-0.05789078772068024,0.05725953355431557,0.042164258658885956,0.005545905325561762,-0.1447061002254486,0.7821612358093262,-0.6060395240783691,-0.4384129160119164,-0.06909662755962291,-0.023850921429298882,0.8957962725908301
8.455571124999551,8.44818945832958,-0.021614033728837967,0.12204894423484802,-0.02279561385512352,0.09541280567646027,0.04604090005159378,0.02034386247396469,-0.1436397284269333,0.7811419367790222,-0.6076059341430664,-0.43761752552105454,-0.06846856848758355,-0.023893315983768253,0.8962321964432295
8.455917958330247,8.448536458330636,-0.016710087656974792,0.10906016081571579,0.012296362780034542,0.13356608152389526,0.0499175526201725,0.03514181822538376,-0.14257198572158813,0.7801193594932556,-0.6091691851615906,-0.43682156575286346,-0.06784049900158466,-0.023935774294922326,0.8966670230911064
8.487545958334522,8.480164541666454,-0.003938976675271988,0.08071015775203705,0.006325999740511179,0.19733121991157532,0.03329107537865639,0.042203355580568314,-0.14174701273441315,0.7782843708992004,-0.6117034554481506,-0.43542310084613056,-0.06749065681081547,-0.02367521419241408,0.8973801792285596
