t_global,t_local,accX,accY,accZ,gyroX,gyroY,gyroZ,gravX,gravY,gravZ,qx,qy,qz,qw
0.48751199999969685,0.4866432499984512,-0.9256563782691956,0.2604348063468933,-0.223311647772789,0.07381964474916458,-0.022337807342410088,0.000558978586923331,0.7484040856361389,0.32548418641090393,-0.5778852105140686,-0.1832218017366066,0.4212921878305337,-3.998724380340863e-17,0.8882243168473347
0.5274778750026599,0.5266087499985588,-0.6583259105682373,0.11093253642320633,-0.07268032431602478,0.09431274980306625,-0.022034132853150368,-0.0027266116812825203,0.48013049364089966,0.4770912230014801,-0.736110508441925,-0.23549082891745368,0.2765660358198716,-0.07154851883086466,0.928943453471791
0.5275952916708775,0.5267265833317651,-0.33242177963256836,0.027069885283708572,-0.004307634197175503,0.11480585485696793,-0.021730458363890648,-0.006012202240526676,0.1532832831144333,0.563058614730835,-0.8120771050453186,-0.2805879543880114,0.12341726088310334,-0.14091803866942199,0.9413716352956052
0.5599829583370592,0.5591138333329582,-0.00441060122102499,0.007338777184486389,-0.033219315111637115,0.1649511605501175,0.030885927379131317,-0.013986711390316486,-0.17336148023605347,0.5720884203910828,-0.8016611337661743,-0.3139258388397383,-0.02489919866314017,-0.20257315597490982,0.9272510565205813
0.5600553750045947,0.559186625003349,-0.012508359737694263,-0.006251034792512655,-0.030823327600955963,0.23753613233566284,0.08068788051605225,-0.06116248667240143,-0.17404614388942719,0.5726221799850464,-0.801131546497345,-0.3143372819334126,-0.025025332783075473,-0.20304456506817747,0.9270051414500644
0.5893366666714428,0.5884677916692453,-0.0170932374894619,-0.01055697537958622,-0.027009736746549606,0.2796468436717987,0.11032256484031677,-0.10273834317922592,-0.17431311309337616,0.571287214756012,-0.802026093006134,-0.31362282379315687,-0.025053017417474076,-0.20384567770112166,0.9270706080621526
0.5897125833362225,0.5888436666646157,-0.02168092131614685,-0.014861390925943851,-0.02319761924445629,0.3217575252056122,0.1399572342634201,-0.14431419968605042,-0.17457722127437592,0.5699506402015686,-0.8029190897941589,-0.31290797335573606,-0.025080599993558193,-0.20464651855483204,0.9271349262842109
0.6189040416720673,0.6180352500014124,-0.025265386328101158,-0.01123546902090311,-0.018508724868297577,0.3285917639732361,0.16056525707244873,-0.17515332996845245,-0.17386803030967712,0.5659573078155518,-0.8058921694755554,-0.3105476123962547,-0.024780303964083268,-0.20591509723290358,0.9276555774804027
0.6485625833374797,0.6476937499974156,-0.02134689688682556,-0.0163559727370739,-0.013840295374393463,0.34837809205055237,0.1947750300168991,-0.2248942255973816,-0.17377421259880066,0.5546948313713074,-0.8137052059173584,-0.30419286035923426,-0.024780661324752797,-0.2099639474705698,0.9288528333816529
0.6487183749995893,0.6478496249983436,-0.014802483841776848,-0.023876138031482697,-0.017597967758774757,0.36934196949005127,0.20382069051265717,-0.231369286775589,-0.17472875118255615,0.5491681694984436,-0.8172417879104614,-0.3012342861677015,-0.025238612700700287,-0.2121604694599601,0.9293054218602929
0.7015867500012973,0.7007177916675573,-0.001709591131657362,-0.04576215147972107,-0.02870037965476513,0.4361211955547333,0.2501468062400818,-0.24999083578586578,-0.17669777572155,0.5404430627822876,-0.8226172924041748,-0.2966662299850494,-0.026085824794873272,-0.21604353048250272,0.9298568626638468
0.7018370416699327,0.7009682083298685,-0.00011198167339898646,-0.0494852289557457,-0.02452888898551464,0.469308078289032,0.2560622990131378,-0.2547087073326111,-0.17743858695030212,0.5369652509689331,-0.8247326016426086,-0.29485076735862237,-0.026395047690771917,-0.21763718471972598,0.930053881348754
0.7291893333385815,0.7283200416641193,-0.00348486821167171,-0.050565652549266815,-0.01028384268283844,0.5380240678787231,0.2206413447856903,-0.26027911901474,-0.17933769524097443,0.524330198764801,-0.8324156999588013,-0.2881693347939235,-0.027396434133887978,-0.222663262452882,0.9309290422126574
0.7295000416706898,0.7286311249990831,0.0022162245586514473,-0.05036273971199989,-0.02145940065383911,0.5571337938308716,0.1944298893213272,-0.2570398449897766,-0.17984896898269653,0.517450213432312,-0.8366000652313232,-0.2844691006991842,-0.027879726456486793,-0.22481725973106664,0.9315348376521154
0.7598831249997602,0.7590143333363812,0.01703534834086895,-0.06483407318592072,-0.04000857472419739,0.5751166939735413,0.20335784554481506,-0.27160125970840454,-0.17946495115756989,0.5101222395896912,-0.8411703705787659,-0.2804052878154629,-0.02806515453402801,-0.22669757009783187,0.93230532273527
0.7928919166733976,0.7920229583323817,0.04191630333662033,-0.08848532289266586,-0.07533427327871323,0.6354668736457825,0.3371380865573883,-0.3569037914276123,-0.17758768796920776,0.4900917410850525,-0.8533889651298523,-0.26929229585406855,-0.02805626764942951,-0.23240320254681848,0.9341751550172454
0.7930168750026496,0.7921480000004522,0.043296512216329575,-0.08126214891672134,-0.06547928601503372,0.6622232794761658,0.41064321994781494,-0.38517454266548157,-0.17634673416614532,0.4822065234184265,-0.8581250905990601,-0.26489697172153454,-0.027694967226557177,-0.23513002814609696,0.9347600719733894
0.825234541669488,0.8243654583347961,0.035818517208099365,-0.04970420151948929,-0.042791299521923065,0.6567332148551941,0.4067986309528351,-0.41428783535957336,-0.1746223419904709,0.47416627407073975,-0.8629446029663086,-0.2603762285202607,-0.027053750343053046,-0.23814856813200863,0.935284657016787
0.862167416671582,0.8612984583305661,0.01087280921638012,0.029328593984246254,-0.011278790421783924,0.5419442057609558,0.3731669783592224,-0.3732437789440155,-0.16916412115097046,0.4532965421676636,-0.8751603960990906,-0.2485787130924558,-0.02506769244925973,-0.24581564832315045,0.9365654685455864
0.8625492083374411,0.8616802500037011,0.0005234216223470867,0.034754496067762375,0.006461727898567915,0.5097854137420654,0.3230951130390167,-0.3296031653881073,-0.16675753891468048,0.4464781880378723,-0.8791183829307556,-0.24464879229901015,-0.024243421079755162,-0.2479525001698724,0.9370585550671654
0.8968833750041085,0.8960145833334536,-0.00740518793463707,0.016417378559708595,0.017988570034503937,0.4986168444156647,0.18678729236125946,-0.19821584224700928,-0.16133207082748413,0.4288656711578369,-0.8888454437255859,-0.23464312361479747,-0.022800547085348483,-0.2525951874303313,0.9384126465022424
0.896933000003628,0.8960642500023823,-0.003613188862800598,0.0030840581748634577,0.011638764292001724,0.5285815000534058,0.16008484363555908,-0.16027389466762543,-0.15994791686534882,0.42341864109039307,-0.8917024731636047,-0.23159723758938222,-0.022615533561292,-0.2536316066893616,0.9388940825325021
0.9575352083338657,0.9566660416676314,0.014008398167788982,-0.016305701807141304,-0.0124130230396986,0.5823517441749573,0.12268196791410446,-0.11415579915046692,-0.1573769599199295,0.41015908122062683,-0.8983328938484192,-0.22431461402132116,-0.022726051268198388,-0.2555465912404289,0.9401395829414905
0.9578484166704584,0.9569794583367184,0.01727697066962719,-0.019448474049568176,-0.009773368947207928,0.5812598466873169,0.13784019649028778,-0.10379534214735031,-0.15659306943416595,0.4045734107494354,-0.9009988903999329,-0.22129950112774424,-0.0229580029965802,-0.256217191773181,0.9406657988423043
0.9582910000026459,0.9574220416689059,0.02053479105234146,-0.022576279938220978,-0.007168345618993044,0.5801678895950317,0.1529984474182129,-0.0934349000453949,-0.15579856932163239,0.3989727795124054,-0.9036301970481873,-0.2182822105694503,-0.02318976628854432,-0.2568852824426046,0.9411826904980337
1.0131866666706628,1.0123177916684654,0.02472955919802189,-0.025241339579224586,0.0034029940143227577,0.5618571639060974,0.1745472252368927,-0.09164824336767197,-0.1533043086528778,0.38682955503463745,-0.9093188047409058,-0.2116498498354508,-0.023343663145315795,-0.2582324851129482,0.9423243519851576
1.0134276666722144,1.0125588750015595,0.03331485763192177,-0.019802359864115715,5.397148197516799e-05,0.5258744955062866,0.1754768341779709,-0.09603634476661682,-0.15100336074829102,0.37918922305107117,-0.9129148721694946,-0.20738795986037434,-0.023082254829179128,-0.25909991305473373,0.9430400750446185
1.013681041673408,1.012812250002753,0.04187846928834915,-0.014337369240820408,-0.0033645511139184237,0.4898918569087982,0.17640645802021027,-0.10042443871498108,-0.14868111908435822,0.3715229034423828,-0.9164413213729858,-0.2031220396936121,-0.022820425176054857,-0.2599623600954761,0.9437373136696373
1.0500065416708821,1.0491374999983236,0.04702470079064369,-0.007218357641249895,-0.005567815154790878,0.4626944959163666,0.1921900063753128,-0.11054100096225739,-0.14675083756446838,0.36649322509765625,-0.9187746644020081,-0.20027535648606026,-0.02241490477477376,-0.2607029630186663,0.9441510287651789
1.0502194583386881,1.0493506666680332,0.052159372717142105,-8.933807839639485e-05,-0.007802832406014204,0.4354971647262573,0.20797355473041534,-0.12065757066011429,-0.14480894804000854,0.3614536225795746,-0.9210763573646545,-0.1974269553792254,-0.022009217061686216,-0.261441218899029,0.9445562906145651
1.0894595416684751,1.0885903333328315,0.061946406960487366,0.006986809894442558,0.0007492185686714947,0.3875402808189392,0.18568876385688782,-0.15499988198280334,-0.13746783137321472,0.34549680352211,-0.9282965660095215,-0.18829046910735728,-0.019959759727265693,-0.2648111528252362,0.9455280148618245
1.0897973750033998,1.088928458331793,0.0628620833158493,0.010691002011299133,0.01230590883642435,0.36843422055244446,0.14492233097553253,-0.16142387688159943,-0.13487933576107025,0.3402498960494995,-0.9306113719940186,-0.18527383939063105,-0.019180583983262053,-0.26608740767116507,0.9457816991130228
1.1419912500059581,1.141122125001857,0.051694341003894806,0.019830359145998955,0.013333773240447044,0.3370037376880646,0.08080882579088211,-0.15648873150348663,-0.13184286653995514,0.33342570066452026,-0.9335120320320129,-0.18140479838802706,-0.018337259635101473,-0.2677602872476021,0.9460763017118484
1.1422922916681273,1.1414234999974724,0.04433136805891991,0.021884659305214882,0.01326264999806881,0.3176809847354889,0.04220377281308174,-0.13898582756519318,-0.1308557540178299,0.330472469329834,-0.9347003102302551,-0.17977892715664426,-0.018148206446051345,-0.26841850032588965,0.9462037392498565
1.181115666666301,1.1802467500019702,0.029800692573189735,0.0015830238116905093,0.027345411479473114,0.28201988339424133,-0.036306265741586685,-0.06979738920927048,-0.12884047627449036,0.32305407524108887,-0.9375693202018738,-0.17575998971752696,-0.017993465847784447,-0.2696133737203437,0.9466219485536581
1.1811607083363924,1.1802919583351468,0.02793048694729805,-0.009392023086547852,0.02940419875085354,0.2791317403316498,-0.07126776874065399,-0.05843193829059601,-0.12854646146297455,0.32089391350746155,-0.9383511543273926,-0.17462926656847286,-0.018139089241955696,-0.26970929872453997,0.9468010763212205
1.2227494583348744,1.2218803333307733,0.02019510231912136,-0.02727753110229969,0.012303785420954227,0.2624707818031311,-0.13149011135101318,-0.02548823133111,-0.12926672399044037,0.3148554265499115,-0.9402958154678345,-0.17169046245111358,-0.019351442292713718,-0.26967898744220153,0.9473230449053871
1.2231154166729539,1.2222465000013472,0.017300674691796303,-0.029125381261110306,0.007889313623309135,0.25146612524986267,-0.13347437977790833,-0.012180564925074577,-0.13000141084194183,0.3131003975868225,-0.9407804012298584,-0.17091145575980699,-0.01997644955162371,-0.26957478386353084,0.9474806274233011
1.2554367916673073,1.2545676250010729,0.014032667502760887,-0.04794603958725929,-0.006656631827354431,0.22336013615131378,-0.12921252846717834,0.014952665194869041,-0.1323443204164505,0.30770546197891235,-0.942232608795166,-0.1685224002935731,-0.021997135424356246,-0.26891231082991246,0.94805185236023
1.2557066666704486,1.254837749998842,0.015416375361382961,-0.05909942835569382,-0.01788916438817978,0.21537995338439941,-0.10512293875217438,0.003952161408960819,-0.13321076333522797,0.30542653799057007,-0.9428517818450928,-0.16749613682287273,-0.022784497003953477,-0.26865782173112807,0.9482872298775975
1.2834495833376423,1.2825807916669874,0.01399219036102295,-0.062170978635549545,-0.014806047081947327,0.21334093809127808,-0.07411792874336243,-0.013630193658173084,-0.13374961912631989,0.3025634288787842,-0.9436982274055481,-0.1661334945330008,-0.02346318235993379,-0.26857437232227777,0.9485339722854975
1.3231003750042873,1.3222314166632714,0.0016598011134192348,-0.061230894178152084,0.00229146471247077,0.21074461936950684,-0.028778882697224617,-0.04734545946121216,-0.13449619710445404,0.29549628496170044,-0.9458290934562683,-0.16270040577523054,-0.024779130219358417,-0.2687875673635101,0.9490351267801712
1.3232009166677017,1.3223320833349135,-0.0014082608977332711,-0.05554207041859627,0.005277810152620077,0.2002914994955063,-0.04708321392536163,-0.048036906868219376,-0.13480466604232788,0.2929965853691101,-0.9465625882148743,-0.16149707146963413,-0.02524673399072754,-0.268975613714853,0.9491750852643095
1.3633885000017472,1.3625192499966943,0.007318368647247553,-0.03388850390911102,-0.009393185377120972,0.1283639818429947,-0.057019878178834915,-0.034042730927467346,-0.13607822358608246,0.2860594391822815,-0.9485002756118774,-0.1582232208294559,-0.026744602376405777,-0.2695198155927827,0.9495310310534462
1.3637648750009248,1.362895958336594,0.004836765117943287,-0.04033540189266205,0.0017100446857511997,0.11736138164997101,-0.04539794102311134,-0.0077105360105633736,-0.13621169328689575,0.28422367572784424,-0.9490327835083008,-0.15732549728105985,-0.027060536833753823,-0.2695525986332517,0.9496618679254352
1.3963312916675932,1.395462166663492,0.0016797683201730251,-0.062392622232437134,0.0035141296684741974,0.12041236460208893,-0.02889682911336422,0.035694729536771774,-0.1367618441581726,0.2788203954696655,-0.9505553245544434,-0.15469707498540153,-0.02812744891298496,-0.26927382933747374,0.9501416354807062
1.3966311666663387,1.3957622916641412,0.004405244253575802,-0.07705561816692352,0.022112365812063217,0.13398835062980652,-0.021039046347141266,0.04589797556400299,-0.1368216872215271,0.27677324414253235,-0.9511447548866272,-0.15367508398756902,-0.02848799212624709,-0.26898626471728465,0.9503781707976642
1.4329932916662074,1.4321244583334192,0.013709519058465958,-0.11742865294218063,0.038491662591695786,0.16687527298927307,0.008201032876968384,0.036800891160964966,-0.1365247517824173,0.272154301404953,-0.9525192975997925,-0.15130823507649002,-0.029088753527690834,-0.26833437719436815,0.9509238491206206
1.4331560416685534,1.4322872499978985,0.011220377869904041,-0.13371898233890533,0.05816483497619629,0.19099901616573334,0.007992389611899853,0.01798822171986103,-0.13616828620433807,0.26955702900886536,-0.9533085227012634,-0.14995629121954776,-0.029305698800346072,-0.26813788441869063,0.951186689988417
1.4641438333346741,1.4632747916693916,0.011720961891114712,-0.1433885544538498,0.05983182042837143,0.20355196297168732,0.029425637796521187,-0.005320283584296703,-0.13590338826179504,0.2665938138961792,-0.9541792273521423,-0.14844218437063,-0.02958529758028471,-0.2681437533443612,0.9514138967403245
1.4948672083337442,1.4939980416675098,0.017131803557276726,-0.1618121862411499,0.08088304847478867,0.22740313410758972,0.06384823471307755,-0.06971569359302521,-0.1348559856414795,0.25860899686813354,-0.9565224647521973,-0.14433792734888962,-0.030088452704215236,-0.2687296516997465,0.9518642243144173
1.4950291250061127,1.4941603333354578,0.02307802252471447,-0.16103728115558624,0.09420736134052277,0.2380671203136444,0.07514044642448425,-0.10243258625268936,-0.13431569933891296,0.25556373596191406,-0.9574165940284729,-0.14276504216684643,-0.0301637230044481,-0.26927949270338913,0.9519436805009385
1.5251630416678381,1.524293916663737,0.02627621404826641,-0.15767189860343933,0.11127632111310959,0.25176697969436646,0.09617230296134949,-0.12699486315250397,-0.13353955745697021,0.25211402773857117,-0.9584392309188843,-0.14096770024459865,-0.030141255643259274,-0.27010416560480977,0.951978580800936
1.5530465000047116,1.552177458332153,0.019619407132267952,-0.15321703255176544,0.148533895611763,0.30283230543136597,0.12498816847801208,-0.17829586565494537,-0.1311921924352646,0.24260278046131134,-0.9612140655517578,-0.13599851624846843,-0.02995589860750431,-0.27263937426980717,0.9519846037427012
1.5531503333331784,1.5522815416697995,0.014986674301326275,-0.13433200120925903,0.16552719473838806,0.3310004472732544,0.11662521213293076,-0.18827345967292786,-0.13007254898548126,0.23790445923805237,-0.9625396728515625,-0.13355519090075005,-0.029885956118919112,-0.27393967884520265,0.9519594335208722
1.6070939583369181,1.6062251666662632,0.00010464020306244493,-0.08392678946256638,0.13500644266605377,0.3095412850379944,0.046977948397397995,-0.2192196547985077,-0.1293376088142395,0.22954846918582916,-0.9646653532981873,-0.12940117318811403,-0.03037500110627076,-0.2763271126868374,0.9518276612111696
1.607408583338838,1.606539749998774,0.010006596334278584,-0.06137051433324814,0.1423177719116211,0.25825363397598267,0.056113988161087036,-0.16609759628772736,-0.1292107105255127,0.22430776059627533,-0.9659143686294556,-0.12685212295147866,-0.03084365396012725,-0.2778942650441689,0.951699492313747
1.6074525000003632,1.6065837499991176,0.019889796152710915,-0.03880847617983818,0.14960268139839172,0.20696598291397095,0.06525002419948578,-0.11297556012868881,-0.1290651559829712,0.21906140446662903,-0.9671371579170227,-0.12430192611410622,-0.0313119799355758,-0.27945891067962714,0.951562561471554
1.6710518750041956,1.6701827500000945,0.0224895142018795,-0.06157861277461052,0.1576128453016281,0.20705516636371613,0.09847237169742584,-0.09203426539897919,-0.1279269903898239,0.2147839218378067,-0.9682471752166748,-0.12206804012282807,-0.031237945215713155,-0.28049136517746914,0.9515503235627715
1.6718543750030221,1.6709854583314154,0.015043424442410469,-0.053164172917604446,0.16240066289901733,0.2271575927734375,0.10296910256147385,-0.08473572134971619,-0.12635940313339233,0.2102314978837967,-0.969451367855072,-0.11963228237186706,-0.031022746620921422,-0.28134561259249524,0.9516144760662529
1.6723220000058063,1.6714530416647904,0.007587437983602285,-0.04474702104926109,0.16716496646404266,0.24726003408432007,0.10746583342552185,-0.07743718475103378,-0.12478197365999222,0.20567643642425537,-0.9706320762634277,-0.11719576577956073,-0.03080742985067659,-0.282198099725421,0.9516722886351304
1.703524541670049,1.7026556666678516,0.0026780678890645504,-0.040174927562475204,0.19886352121829987,0.23960764706134796,0.09419353306293488,-0.05217442661523819,-0.12360873073339462,0.20259086787700653,-0.9714308381080627,-0.11552484230738275,-0.030636526180127202,-0.28258448255948143,0.9517674741523059
1.7354722500022035,1.734603208336921,0.0031885032076388597,-0.0527418814599514,0.23457567393779755,0.22928355634212494,0.03326021879911423,-0.013268568553030491,-0.12154374271631241,0.19507086277008057,-0.9732288718223572,-0.11156077893132794,-0.030655147573308353,-0.28312609745671524,0.9520788154609322
1.7356272083343356,1.7347583750015474,0.005741806235164404,-0.06354229152202606,0.2103920429944992,0.24357853829860687,0.03328044340014458,-0.04121420904994011,-0.12134095281362534,0.19199517369270325,-0.9738656282424927,-0.11003300549762415,-0.030982674997686723,-0.2832664231289703,0.9522041675542168
1.7668874583396246,1.7660182916661142,0.0005186991766095161,-0.05843346565961838,0.2290138304233551,0.2620268166065216,0.06613318622112274,-0.036503832787275314,-0.12068010121583939,0.18867036700248718,-0.9745972752571106,-0.10832043540626204,-0.03111348849567329,-0.2835101956638448,0.9523237481786297
1.798357791667513,1.7974889583347249,-0.01740238256752491,-0.07173378020524979,0.28629398345947266,0.2913384735584259,-0.017098138108849525,-0.01736777275800705,-0.1187245324254036,0.1797136664390564,-0.9765282869338989,-0.10367694924912199,-0.03141563823591335,-0.28388154220839673,0.9527199524242768
1.8297844166663708,1.8289154583326308,-0.014718403108417988,-0.06595568358898163,0.2606830596923828,0.2832576334476471,-0.013933677226305008,-0.025368135422468185,-0.11928459256887436,0.1763669103384018,-0.9770700335502625,-0.10213642964636281,-0.032142093960612954,-0.28410493274038423,0.9527955017899546
1.8298315833380911,1.8289628749989788,-0.012036332860589027,-0.06017537787556648,0.23506060242652893,0.2751768231391907,-0.010769207961857319,-0.033368490636348724,-0.11984287947416306,0.1730179637670517,-0.9776003360748291,-0.10059559527523254,-0.032868506426736534,-0.2843274991814007,0.9528683010340265
1.829853416667902,1.8289847083360655,-0.009356307797133923,-0.054392993450164795,0.20942674577236176,0.2670959532260895,-0.007604734506458044,-0.04136885702610016,-0.12039908766746521,0.16966690123081207,-0.9781191945075989,-0.09905442828697583,-0.03359472014886368,-0.2845492534261696,0.9529382174083089
1.8520812083370402,1.8512124166663853,0.004578806459903717,-0.04125955328345299,0.17013005912303925,0.26401856541633606,-0.02663346938788891,-0.027065077796578407,-0.12111493945121765,0.16233789920806885,-0.9792739748954773,-0.09560685847972288,-0.03496170342234705,-0.2848508901347712,0.9531509521150914
1.8693932500027586,1.8685243750005611,0.0047475118190050125,-0.06514804810285568,0.10967529565095901,0.25537434220314026,-0.058278899639844894,0.02954828180372715,-0.12165962159633636,0.15458984673023224,-0.9804595708847046,-0.09191221463704406,-0.03636435896341461,-0.2845611036841114,0.9535484805962579
1.905853833333822,1.9049847916685394,0.004626941867172718,-0.05705934390425682,0.06162653863430023,0.2522350549697876,-0.06441758573055267,0.02209581807255745,-0.1224769800901413,0.15136481821537018,-0.9808608889579773,-0.09045764851952658,-0.037241968404645186,-0.2843321229334964,0.9537219933115639
1.935356458336173,1.9344877083349274,-0.0015517815481871367,-0.011226501315832138,0.025971978902816772,0.2416727989912033,0.010588702745735645,0.051637809723615646,-0.12351460009813309,0.14345884323120117,-0.9819183945655823,-0.08674894801453038,-0.03892846686259472,-0.28372110384987365,0.9541810358390552
1.9359543333339388,1.9350855000011506,-0.0012949969386681914,-0.012312839739024639,0.05473129823803902,0.24485735595226288,0.0027392867486923933,0.09042856097221375,-0.12321977317333221,0.14039626717567444,-0.9823979735374451,-0.08519841247051689,-0.0392713664486856,-0.283182387869534,0.9544666575472951
1.9625144583333167,1.9616456666699378,0.012118693441152573,-0.034117236733436584,0.0614527128636837,0.24928809702396393,0.015458349138498306,0.1272267997264862,-0.12291574478149414,0.13717462122440338,-0.9828910827636719,-0.08355405130971762,-0.039663373855554886,-0.2822682270975934,0.954866556008707
1.9845382916682865,1.9836693749966798,0.0279699694365263,-0.08215861767530441,0.08199071139097214,0.29560741782188416,0.06777031719684601,0.12208399921655655,-0.12110631167888641,0.12898454070091248,-0.9842236638069153,-0.07922379679177717,-0.0401465661351535,-0.27992729994967414,0.9559040001978918
2.030838666672935,2.0299696666697855,0.025996701791882515,-0.06829675287008286,0.06804736703634262,0.2688397467136383,0.07107847183942795,0.10238137096166611,-0.12042311578989029,0.1257564127445221,-0.9847251176834106,-0.07754473816717433,-0.04030188505748032,-0.27954201477505897,0.9561478103044992
2.0312267916669953,2.030357916664798,0.02402546815574169,-0.05443279445171356,0.05409261956810951,0.24207210540771484,0.07438663393259048,0.08267871290445328,-0.11974188685417175,0.12252621352672577,-0.9852153062820435,-0.07586546108478871,-0.040457047245739675,-0.27915585478914373,0.9563888389819785
2.031777833333763,2.030908875000023,0.02205618843436241,-0.04056672379374504,0.04012662544846535,0.2153044492006302,0.07769479602575302,0.06297607719898224,-0.11906265467405319,0.11929386854171753,-0.9856942296028137,-0.07418594499905988,-0.04061208598514021,-0.2787688124738551,0.9566268714542798
2.062931666667282,2.0620626250019995,0.028678027912974358,-0.05822932720184326,0.059760674834251404,0.11026521027088165,0.11308885365724564,0.09657903015613556,-0.11561457812786102,0.11427632719278336,-0.9866986274719238,-0.07120970304190534,-0.03974745068529657,-0.2774672387233161,0.9572674455188297
2.0995608333396376,2.0986920416689827,0.03339501470327377,-0.06712257862091064,0.07016810774803162,0.11322956532239914,0.13666775822639465,0.05492505803704262,-0.11108540743589401,0.11123288422822952,-0.987566351890564,-0.06904596450435012,-0.0380720486041759,-0.2762776998209219,0.9578380643589203
2.0996677500006626,2.0987989583300077,0.045587945729494095,-0.05816398188471794,0.012585071846842766,0.07726393640041351,0.10361473262310028,0.004487788770347834,-0.11007748544216156,0.11013635993003845,-0.9878020882606506,-0.068372755938459,-0.0377376224541011,-0.27627830769851197,0.9578993788759781
2.1315362916720915,2.130667291668942,0.05497957393527031,-0.05135759338736534,-0.0024707959964871407,0.04836427792906761,0.13051678240299225,0.021961577236652374,-0.10851602256298065,0.10940490663051605,-0.9880560636520386,-0.06779832919203382,-0.037085542195041336,-0.27628072152704786,0.9579650302244588
2.1316087916711695,2.130740041669924,0.06437065452337265,-0.044550660997629166,-0.017529506236314774,0.019464628770947456,0.15741881728172302,0.039435360580682755,-0.10695406049489975,0.10867297649383545,-0.9883071184158325,-0.06722375540173374,-0.03643337390806986,-0.27628302325542325,0.9580298418815492
2.189755041668832,2.18888595833414,0.00991747248917818,-0.033155910670757294,-0.10166169703006744,-0.009815815836191177,0.026086511090397835,-0.03755684942007065,-0.102910116314888,0.10553494095802307,-0.9890762567520142,-0.065146079961222,-0.034897642562334,-0.2765794270921369,0.9581450659348446
2.1901797500031535,2.189310875000956,-0.016680805012583733,0.002094474621117115,-0.14102831482887268,-0.022591395303606987,0.020691873505711555,-0.011567309498786926,-0.10128774493932724,0.10449683666229248,-0.9893539547920227,-0.0644335689508943,-0.03422493603082155,-0.27709197679037795,0.9580693286026476
2.2227511666715145,2.221882291669317,-0.019031165167689323,0.025012055411934853,-0.15561901032924652,-0.009592565707862377,0.031591638922691345,0.04801233112812042,-0.10006695240736008,0.10416434705257416,-0.9895132184028625,-0.06409786115284426,-0.033687630481264476,-0.2770183986287046,0.9581321316830474
2.2245409166716854,2.2236720000000787,-0.010884551331400871,0.01407074835151434,-0.18082621693611145,-0.005834035575389862,0.052345260977745056,0.04193512722849846,-0.09899330884218216,0.10410153120756149,-0.9896277785301208,-0.06390096240429885,-0.033207834646648754,-0.2765844935151779,0.9582874430760157
2.273415916672093,2.272547000000486,-0.0176363717764616,0.015839023515582085,-0.1586267501115799,-0.004405856132507324,0.09167492389678955,0.018228165805339813,-0.0973636731505394,0.10417403280735016,-0.9897818565368652,-0.06369928372052108,-0.03242652691371267,-0.276370686646303,0.9583892798377754
2.2735416249997797,2.2726727499975823,-0.02547736093401909,0.02672847919166088,-0.12179780751466751,0.014923266135156155,0.0566294826567173,0.018833905458450317,-0.09572453051805496,0.1040629968047142,-0.9899533987045288,-0.06341015921474562,-0.031661579372535956,-0.2762239341255931,0.9584763302185
2.309275625004375,2.308406500000274,-0.01959151215851307,0.0400213785469532,-0.13456991314888,0.012810621410608292,0.05077996104955673,0.03007354959845543,-0.09487958252429962,0.10371082276105881,-0.9900716543197632,-0.06311641388237765,-0.03131255328714448,-0.2760803841935205,0.9585485465641956
2.3287773333358928,2.3279081666696584,-0.021175431087613106,0.048613354563713074,-0.09883075207471848,0.000864262692630291,0.03619327023625374,0.060663267970085144,-0.09377443045377731,0.10356056690216064,-0.990192711353302,-0.06287440598814051,-0.03082953762658149,-0.27564068831393956,0.9587066576695675
2.328966750006657,2.3280978333350504,-0.009164771065115929,0.04066722095012665,-0.10290449112653732,-0.046947333961725235,0.0015171919949352741,0.052872184664011,-0.0934358686208725,0.10409890860319138,-0.9901682734489441,-0.06306905968241268,-0.03062952154726762,-0.2750698493550507,0.9588642314818724
2.370631208337727,2.369762416667072,-0.004278657492250204,0.04588983952999115,-0.09680627286434174,-0.08258602768182755,0.011363133788108826,0.03926276043057442,-0.09324643760919571,0.10552927106618881,-0.9900346994400024,-0.06372111599315633,-0.03036896657885158,-0.27464847137809073,0.9589502256713137
2.371604041669343,2.3707352499986882,-0.012763275764882565,0.05713770166039467,-0.09689675271511078,-0.09888818860054016,0.003661524038761854,0.03245531767606735,-0.0930846780538559,0.10744492709636688,-0.9898438453674316,-0.06461582671305506,-0.030047827782042166,-0.2743421561849798,0.9589880264372712
2.414636708337639,2.413767625002947,-0.028824027627706528,0.08076323568820953,-0.1066012978553772,-0.08411210775375366,-0.0389581173658371,0.027404751628637314,-0.09342008084058762,0.10926996916532516,-0.9896124005317688,-0.0655380500204794,-0.029975755015857936,-0.27408973555929955,0.9589999058886802
2.414836000003561,2.413967041669821,-0.024903154000639915,0.10069572180509567,-0.10938824713230133,-0.0771108865737915,-0.04393524304032326,0.04184075817465782,-0.09406475722789764,0.11095297336578369,-0.9893640875816345,-0.06643175416165364,-0.030079647251732216,-0.2737387443812242,0.9590354163236682
2.4505361250048736,2.449666791668278,-0.00916576012969017,0.0999712124466896,-0.13350112736225128,-0.09390130639076233,0.009540705010294914,0.06531298160552979,-0.09434926509857178,0.11281716823577881,-0.9891261458396912,-0.06735865742165101,-0.029995708872664655,-0.2732436016281047,0.9591146135758797
2.4510507916711504,2.450181916668953,-0.005145156290382147,0.08825288712978363,-0.15963557362556458,-0.10940039157867432,0.039878152310848236,0.08542720228433609,-0.09374784678220749,0.11502697318792343,-0.9889287948608398,-0.06832332173283326,-0.029453862045006392,-0.2725248538192456,0.9592676053860215
2.4910223750048317,2.490153458333225,-0.02063637413084507,0.08534996211528778,-0.16487547755241394,-0.11457733809947968,0.046475138515233994,0.08388988673686981,-0.09268338233232498,0.11743634939193726,-0.988745927810669,-0.06931966269684674,-0.028667429805091876,-0.27174042435164963,0.9594424649112517
2.492557083336578,2.4916883333353326,-0.04431229457259178,0.0955795869231224,-0.12234574556350708,-0.09969854354858398,-0.005946041084825993,0.09445378184318542,-0.0919378399848938,0.11973368376493454,-0.98853999376297,-0.07030663439336968,-0.02805328659839628,-0.27093507767713276,0.9596166009708562
2.525877041669446,2.525008083335706,-0.06528259813785553,0.09530191868543625,-0.10131672769784927,-0.08925233781337738,-0.10202623158693314,0.08569943904876709,-0.09261995553970337,0.12177538871765137,-0.9882268309593201,-0.07136479345642362,-0.028171622737081018,-0.2700380885354398,0.9597878245337272
2.5293183333342313,2.5284492499995395,-0.07048753648996353,0.08509357273578644,-0.13194693624973297,-0.0951622724533081,-0.11860361695289612,0.06954082101583481,-0.09464159607887268,0.12385760992765427,-0.9877763986587524,-0.07262822994117757,-0.028929660091027518,-0.26919288832141786,0.9599079416416839
2.562831625000399,2.5619622916638036,-0.07092268019914627,0.09673190861940384,-0.16310815513134003,-0.09332975745201111,-0.07095105946063995,0.10136587172746658,-0.0964694395661354,0.1259804517030716,-0.9873310327529907,-0.07388370135097935,-0.029591847008985567,-0.26833542151633644,0.9600320445534978
2.5964692083362024,2.595600208333053,-0.05000036209821701,0.10769280791282654,-0.1469707190990448,-0.06588505208492279,0.00125425448641181,0.16195102035999298,-0.0969519168138504,0.127805694937706,-0.9870491623878479,-0.07479815059675574,-0.02967584748112765,-0.26709364210226644,0.9603048762570697
2.597526416670007,2.5966574999984005,-0.030177537351846695,0.0942319706082344,-0.06176808103919029,-0.01705828867852688,0.06529046595096588,0.2278081625699997,-0.09566427022218704,0.12906715273857117,-0.987010657787323,-0.07517957733436836,-0.029029356452140196,-0.26523801723962065,0.9608090403593075
2.6283583333352,2.627489208331099,-0.03195107355713844,0.03657741844654083,-0.0059489598497748375,0.049907226115465164,-0.01171822939068079,0.2287946343421936,-0.0940147116780281,0.12920570373535156,-0.987151026725769,-0.07495608390050715,-0.02839147799561126,-0.26294992818360485,0.9614742383635818
2.6284777083346853,2.6276089166640304,-0.03617610037326813,-0.007223567925393581,-0.0730615109205246,0.04904578626155853,-0.07044128328561783,0.12244120240211487,-0.09401048719882965,0.1285686045885086,-0.9872345924377441,-0.07459123482786509,-0.028615485809164093,-0.2611207837024263,0.9619943974208355
2.6607793333387235,2.6599102083346224,-0.0562453418970108,0.014290562830865383,-0.17941710352897644,-0.04291507229208946,-0.045607563108205795,0.07806579023599625,-0.09490595012903214,0.12868303060531616,-0.9871339797973633,-0.07473784689903341,-0.02910752807390776,-0.26017640022833693,0.9622241330091585
2.690153708339494,2.6892846666669357,-0.06073759123682976,0.03165021911263466,-0.19797228276729584,-0.16065223515033722,0.021522190421819687,0.16800162196159363,-0.0949799120426178,0.1310311108827591,-0.9868179559707642,-0.07585687890803892,-0.028926744614085658,-0.25903270315405214,0.9624504077965897
2.6905696250032634,2.689700750001066,-0.055088602006435394,-0.0032575090881437063,-0.17655004560947418,-0.23687784373760223,0.05189564451575279,0.17706361413002014,-0.09385257959365845,0.13538025319576263,-0.9863386154174805,-0.07777813054789942,-0.02795079101170797,-0.25734595173058683,0.96277834960639
2.71340179166873,2.712532708334038,-0.05619481950998306,-0.01381770707666874,-0.16384680569171906,-0.2614400088787079,0.06479133665561676,0.10203461349010468,-0.09208422899246216,0.1406741738319397,-0.9857643246650696,-0.08009373574442477,-0.026511025798152323,-0.2561140377590727,0.9629578067978336
2.749950750003336,2.749081666668644,-0.045942019671201706,0.0008812879677861929,-0.22627714276313782,-0.2381247878074646,0.0045775859616696835,0.011997987516224384,-0.09118249267339706,0.1457240730524063,-0.985114336013794,-0.08243064195019122,-0.02545618000194011,-0.2557265997515976,0.9628920194016363
2.7500495000058436,2.7491807083351887,-0.03790447860956192,0.03476353734731674,-0.29406964778900146,-0.21954180300235748,0.0564032681286335,0.017989179119467735,-0.09045807272195816,0.15037517249584198,-0.984481930732727,-0.08460828356035918,-0.02450458397098748,-0.25574219390599967,0.9627236603372065
2.8007502500040573,2.799881250000908,-0.04075683280825615,0.04744761437177658,-0.29288434982299805,-0.19819924235343933,0.06886003911495209,0.06313476711511612,-0.08885159343481064,0.1546124517917633,-0.9839717149734497,-0.08645924525775157,-0.023214749737248314,-0.25534645295888664,0.9626961758917422
2.8009734166698763,2.800104583329812,-0.04719451442360878,0.06575201451778412,-0.239889457821846,-0.180709108710289,0.08132851123809814,0.09608965367078781,-0.08685681968927383,0.15856023132801056,-0.9835215210914612,-0.08811337016008013,-0.021800886043279365,-0.2546652467257393,0.9627596379355605
2.813899416672939,2.8130302499994286,-0.03261536732316017,0.05995582044124603,-0.24456757307052612,-0.14333976805210114,0.007902946323156357,0.07327990978956223,-0.08587184548377991,0.16183997690677643,-0.9830736517906189,-0.08957291829841073,-0.020972596931251693,-0.25390003274792616,0.9628454933584718
2.8549172500061104,2.8540480833326,-0.016680127009749413,0.0584108941257,-0.2737491726875305,-0.1104872077703476,0.030357955023646355,0.042714446783065796,-0.08528878539800644,0.16439330577850342,-0.9827007055282593,-0.090735563285678,-0.020413306012558297,-0.25335836621310404,0.9628913504798959
2.8551379583368544,2.8542690416652476,-0.005020746495574713,0.055295590311288834,-0.267230361700058,-0.09562835842370987,0.0686967596411705,0.005241009872406721,-0.08425554633140564,0.16644424200057983,-0.9824445843696594,-0.09160257274316844,-0.019664253568624487,-0.25319960984024326,0.9628665540646701
2.886331125002471,2.885462333331816,-0.011984646320343018,0.06531335413455963,-0.2304602414369583,-0.056612107902765274,0.06624199450016022,-0.06666196137666702,-0.08302970230579376,0.16787105798721313,-0.9823061227798462,-0.09215114539309927,-0.018843700318340158,-0.25364625000884605,0.9627130796716973
2.8881021666675224,2.8872330833328306,-0.02598699927330017,0.09459742903709412,-0.17013724148273468,0.0043354579247534275,0.018488261848688126,-0.09585900604724884,-0.08233985304832458,0.1682594120502472,-0.9822977781295776,-0.09226920225585156,-0.018371213424204537,-0.25456181940502737,0.9624692007106525
2.927856583337416,2.926987791666761,-0.03972282633185387,0.09888490289449692,-0.17411845922470093,0.04458651319146156,-0.026527658104896545,-0.09896087646484375,-0.08292209357023239,0.16755875945091248,-0.9823685884475708,-0.09202076858847473,-0.01865187426494185,-0.25552520575516546,0.9622322825675161
2.9397810000009486,2.9389118749968475,-0.05308396369218826,0.08977711945772171,-0.19878917932510376,0.07475391775369644,-0.0577421672642231,-0.09388542175292969,-0.08408429473638535,0.1661766916513443,-0.9825045466423035,-0.09151405441403407,-0.019310881058517533,-0.2564025157992265,0.9620342724469781
2.9717799999998533,2.9709109583345708,-0.04323354363441467,0.08997159451246262,-0.2594098746776581,0.09951470792293549,-0.07117666304111481,-0.11101934313774109,-0.08578651398420334,0.164228156208992,-0.9826849699020386,-0.09080391436310316,-0.020301480046885083,-0.25733070207120257,0.9618332738971684
2.9718310000025667,2.9709622916634544,-0.04078103229403496,0.11626582592725754,-0.29195570945739746,0.10156191885471344,-0.005183660890907049,-0.07591407001018524,-0.08670995384454727,0.1620822548866272,-0.9829601645469666,-0.08989545724580711,-0.020945392610677037,-0.25821651232946713,0.961667337895665
3.006704458333843,3.0058355833316455,-0.029860638082027435,0.13145823776721954,-0.2991487979888916,0.07582607120275497,0.01415940374135971,-0.03212815895676613,-0.08683992922306061,0.1601877361536026,-0.9832592010498047,-0.08899787410798256,-0.021207509604699235,-0.2587332125701215,0.9616062102358238
3.033899375004694,3.033030291670002,-0.02846653386950493,0.108213871717453,-0.2831299304962158,0.07165741920471191,0.027569971978664398,-0.004894118290394545,-0.08633926510810852,0.15880748629570007,-0.9835271835327148,-0.08825950533873445,-0.021134452597944445,-0.25884811039028816,0.9616449811116546
3.0352078750001965,3.0343390833368176,-0.01997433975338936,0.0694800391793251,-0.2695181965827942,0.14569027721881866,0.0002211387181887403,-0.042950063943862915,-0.08599832653999329,0.15672604739665985,-0.9838908910751343,-0.08720067819554786,-0.021227430888931215,-0.2589976932832919,0.9616992778240524
3.0727239583357004,3.071854958332551,-0.021676301956176758,0.061722010374069214,-0.29371389746665955,0.21936000883579254,-0.05522777512669563,-0.08624084293842316,-0.0866997241973877,0.1529044806957245,-0.9844304919242859,-0.08544095935041027,-0.022013521972893784,-0.25959376252463223,0.9616788759578702
3.072886208334239,3.072017375001451,-0.016291197389364243,0.06384856253862381,-0.3296552002429962,0.23385834693908691,-0.04024285823106766,-0.08114977180957794,-0.08802010118961334,0.14818589389324188,-0.985034704208374,-0.08333133291993898,-0.023206114505308642,-0.26033731806605837,0.9616349172977553
3.103450291666377,3.102581500002998,-0.012086458504199982,0.058149728924036026,-0.29870694875717163,0.21636292338371277,0.04159977659583092,-0.06633374094963074,-0.08821580559015274,0.1436251997947693,-0.98569256067276,-0.08114923637442199,-0.023843842004926306,-0.2609879407239957,0.9616296270059576
3.135760916666186,3.1348919166703126,-0.01439939346164465,0.04257126525044441,-0.2319294810295105,0.21812251210212708,0.02105674333870411,-0.10128380358219147,-0.08769077807664871,0.1392195224761963,-0.9863712787628174,-0.0789501158022683,-0.02410905480677442,-0.2617081430804816,0.9616103386496495
3.136020375000953,3.1351514583366225,-0.019115667790174484,0.040729980915784836,-0.19344699382781982,0.22321553528308868,-0.04128118231892586,-0.15271109342575073,-0.08818112313747406,0.13458320498466492,-0.986970841884613,-0.0767874009838946,-0.024864988997695445,-0.26285636988351846,0.9614529824664381
3.1640261666689184,3.1631573749982635,-0.019942644983530045,0.05216109752655029,-0.18634170293807983,0.21092602610588074,-0.05986497551202774,-0.18481244146823883,-0.08976619690656662,0.1299503594636917,-0.9874486923217773,-0.07478856000680285,-0.026121227918315622,-0.26443696649517223,0.9611437100093855
3.1788348333357135,3.1779660000029253,-0.02474040538072586,0.07338599115610123,-0.12569116055965424,0.19867382943630219,-0.014766054227948189,-0.12176048010587692,-0.09083059430122375,0.12564581632614136,-0.9879083633422852,-0.07288068479340974,-0.027096518416748924,-0.26590593878803076,0.9608579961658044
3.2026238750040648,3.2017550000018673,-0.013356268405914307,0.05878691375255585,-0.1023070365190506,0.21969856321811676,-0.07262434810400009,-0.0971335768699646,-0.09197807312011719,0.12125413119792938,-0.9883508682250977,-0.07092898010615598,-0.02817152561177996,-0.26680166189802773,0.9607247960858625
3.215084499999648,3.2142153333334136,-0.007541600149124861,0.06105641648173332,-0.1408684104681015,0.21013250946998596,-0.018448537215590477,-0.11408373713493347,-0.09333273023366928,0.11671219766139984,-0.988770604133606,-0.06893641441715406,-0.029367937419154343,-0.26772841017522847,0.9605762843168539
3.2525813750035013,3.2517124166697613,-0.01609313301742077,0.09485495090484619,-0.09459032863378525,0.17645575106143951,0.005847461987286806,-0.10287880152463913,-0.09339490532875061,0.1126638725399971,-0.9892341494560242,-0.06701259772995775,-0.029870106001382405,-0.2687540171512253,0.9604104834256364
3.2528195416671224,3.2519505833333824,-0.011537767015397549,0.10160736739635468,-0.04788440838456154,0.13953466713428497,0.0413084551692009,-0.016305116936564445,-0.0932527631521225,0.1095658540725708,-0.9895954728126526,-0.06551114118268418,-0.030175140564608058,-0.26939642421736165,0.960324543292701
3.292400500002259,3.2915314999991097,-0.012248005717992783,0.05511771887540817,0.011364014819264412,0.21670007705688477,-0.03487592563033104,0.05311176925897598,-0.09299850463867188,0.1061835065484047,-0.9899880290031433,-0.06382689798937179,-0.030530296086196094,-0.26907827972722403,0.9605158659633453
3.2939043333390146,3.293035458336817,-0.0026460178196430206,0.011727044358849525,-0.039693500846624374,0.3109990954399109,-0.11448290199041367,0.00784741435199976,-0.0946057140827179,0.10092634707689285,-0.9903855919837952,-0.06148348447713883,-0.03204653201116774,-0.26859238466937774,0.9607552909494078
3.329483916670142,3.328615083330078,0.006453529000282288,0.015439114533364773,-0.08660215139389038,0.34275001287460327,-0.05541687831282616,-0.04364781826734543,-0.09654133021831512,0.09423647075891495,-0.9908578395843506,-0.05850869184856938,-0.03387935851071978,-0.2686281441397953,0.9608681421875467
3.336260708339978,3.335391749998962,0.023631896823644638,0.031025445088744164,-0.05593952536582947,0.30473026633262634,0.013641332276165485,-0.04860614985227585,-0.0970519483089447,0.08760623633861542,-0.9914162158966064,-0.05538092051734701,-0.0349979409193181,-0.2689708588957957,0.9609175310201398
3.3701487083380925,3.3692797499970766,0.02801811695098877,0.011939572170376778,-0.016719413921236992,0.2620973289012909,-0.01725131645798683,-0.008412246592342854,-0.09704464673995972,0.08217136561870575,-0.9918821454048157,-0.05275656579744509,-0.035716481901323524,-0.26914470491071796,0.9609901664719286
3.3714732083390118,3.3706043749989476,0.019380509853363037,-0.0065228999592363834,-0.012952132150530815,0.271053671836853,-0.07604444026947021,-0.011979917995631695,-0.09797128289937973,0.07694916427135468,-0.9922099113464355,-0.050356389867997696,-0.036868552272886754,-0.26912069798027555,0.9610821667977415
3.401240791667078,3.4003719166648807,0.021240906789898872,-0.008611863479018211,-0.03950442001223564,0.252806693315506,-0.10680707544088364,-0.05694032832980156,-0.09979812055826187,0.07182513922452927,-0.9924119710922241,-0.04813487049908881,-0.038432494554511386,-0.26928612956540465,0.9610883188229732
3.434747041668743,3.4338783333369065,0.023285439237952232,0.016529815271496773,-0.033509016036987305,0.18342281877994537,-0.007885918021202087,-0.07455633580684662,-0.10040789097547531,0.06810416281223297,-0.9926127791404724,-0.046441384133183675,-0.039202293805693955,-0.2698228026495532,0.9609900676556594
3.4348432083352236,3.4339744166645687,0.012072330340743065,0.03162459656596184,-0.0076567307114601135,0.08668716251850128,0.028554033488035202,-0.06195289269089699,-0.09941409528255463,0.06602060794830322,-0.9928535223007202,-0.04532320206654838,-0.03897492455907216,-0.2704300962129512,0.9608820331899868
3.471975291671697,3.471106500001042,0.009745990857481956,0.020554857328534126,-0.009909454733133316,0.024641482159495354,0.05576963350176811,-0.02372301183640957,-0.09812536835670471,0.06511518359184265,-0.9930415153503418,-0.044724502090989805,-0.03845733397309635,-0.27081377175053084,0.9608228491935615
3.4720388333371375,3.471170083335892,0.0027014061342924833,0.007349174004048109,0.008319132030010223,0.015359778888523579,0.0711248368024826,-0.015883373096585274,-0.09630776941776276,0.06458425521850586,-0.9932540655136108,-0.04422616572656515,-0.037643059167890056,-0.27100563011558076,0.9608240898047031
3.5141713333359803,3.5133024166643736,-0.002062984276562929,-0.0026317022275179625,0.018032114952802658,-0.006513152737170458,0.060671381652355194,-0.04689600691199303,-0.0943569540977478,0.06480730324983597,-0.9934267997741699,-0.04407715257634285,-0.03665802252241522,-0.2712954852012471,0.9607871961091426
3.514537458337145,3.513668541665538,-0.008952579461038113,0.011230106465518475,0.04474291577935219,-0.060506671667099,0.07402617484331131,-0.05100248381495476,-0.09283614903688431,0.06646598130464554,-0.993460476398468,-0.04468894705295344,-0.03567432781829324,-0.2718280861568535,0.9606453850221889
3.5678950416695443,3.5670262499988894,-0.006074484903365374,0.012342693284153938,0.09469427168369293,-0.08259267359972,0.04653981328010559,-0.012768548913300037,-0.09181489050388336,0.06896724551916122,-0.9933848977088928,-0.04575988290705531,-0.03483655192370303,-0.27193247837806134,0.9605962087621984
3.5679490833354066,3.5670802500026184,-0.0031961952336132526,0.013455447740852833,0.1446382701396942,-0.104678675532341,0.019053449854254723,0.025465385988354683,-0.09079395234584808,0.07146836817264557,-0.9933019280433655,-0.046830731184996185,-0.03399874769163266,-0.27203629135664903,0.9605451339667247
3.573226500004239,3.572357583332632,-0.0023809941485524178,-0.006199698895215988,0.17675277590751648,-0.07632952928543091,0.00795658864080906,0.054021090269088745,-0.09031206369400024,0.0736648291349411,-0.9931854009628296,-0.0478138336011793,-0.03348342836986855,-0.27171335680536174,0.960606227939316
3.6229307083340245,3.622061833331827,-0.0028434183914214373,-0.03116624616086483,0.19211028516292572,-0.027913449332118034,0.005317517556250095,0.06500187516212463,-0.08999840915203094,0.07493572682142258,-0.9931187629699707,-0.04836532705320933,-0.03318735467684473,-0.2711570014554933,0.9607461247223444
3.6230757500015898,3.6222069166688016,-0.001845483435317874,-0.05146665498614311,0.1824387013912201,-0.010289536789059639,0.020236318930983543,0.05346130207180977,-0.08972375094890594,0.07539857178926468,-0.9931086301803589,-0.04853244723141145,-0.03301963950570018,-0.2706106932027978,0.9608975465809779
3.65343754166679,3.6525687083340017,-0.011347559280693531,-0.06093599274754524,0.17405687272548676,-0.03135691583156586,0.048547085374593735,0.048765894025564194,-0.08892719447612762,0.07585830986499786,-0.993145227432251,-0.04862944121905229,-0.0325968579592118,-0.270139682916778,0.9610395506928539
3.653478541673394,3.6526098333342816,-0.016460994258522987,-0.06013736128807068,0.1804186999797821,-0.09680414199829102,0.09113762527704239,0.056669171899557114,-0.08750835806131363,0.07721617072820663,-0.9931666254997253,-0.049077034412481395,-0.031751049849192185,-0.26970015933035457,0.9611685593384929
3.685125291667646,3.684256208332954,-0.01028362289071083,-0.06900762766599655,0.20858077704906464,-0.19490419328212738,0.12425726652145386,0.06044837087392807,-0.08533503860235214,0.08022689819335938,-0.993117094039917,-0.05022030398499665,-0.030321091157653995,-0.2692164493512607,0.9612913071571014
3.721784875000594,3.7209157916659024,0.004246422089636326,-0.10209784656763077,0.2358652800321579,-0.2643437087535858,0.14094258844852448,0.046786416321992874,-0.08264749497175217,0.08499549329280853,-0.9929476976394653,-0.05214743468589197,-0.028404001802123283,-0.26879899032934756,0.9613640303265787
3.7346274583396735,3.7337586666690186,0.01604125276207924,-0.127608522772789,0.25002020597457886,-0.2602037489414215,0.14684472978115082,-0.00667607644572854,-0.07969021797180176,0.0903882086277008,-0.9927131533622742,-0.054351345026693386,-0.02625534556886996,-0.2687180171386192,0.9613256765873166
3.7379553749997285,3.7370865416669403,0.02811417356133461,-0.12924613058567047,0.25985875725746155,-0.21312522888183594,0.14658798277378082,-0.06700550764799118,-0.07692991197109222,0.09508176892995834,-0.9924924373626709,-0.0562600016027484,-0.024260842455145114,-0.26923783058844375,0.9611228781386993
3.7737892083387123,3.7729202499976964,0.03301470726728439,-0.11828608065843582,0.2813170254230499,-0.15951545536518097,0.12301076203584671,-0.11060677468776703,-0.07432421296834946,0.09864424914121628,-0.9923433065414429,-0.05765196437162624,-0.022463268254735616,-0.2702299954481656,0.960805520567179
3.7749197083394392,3.7740507916678325,0.032717663794755936,-0.10277631133794785,0.2842206358909607,-0.1340005099773407,0.08738327026367188,-0.12460881471633911,-0.07245567440986633,0.10135790705680847,-0.9922080039978027,-0.058737203480053,-0.021117038784210437,-0.27149321335323584,0.960414097034252
3.8042377500023576,3.8033687499992084,0.027948617935180664,-0.10054347664117813,0.2650873064994812,-0.12583543360233307,0.06097843125462532,-0.1105644479393959,-0.07124117016792297,0.10381505638360977,-0.9920418858528137,-0.05978464413684016,-0.02012073321185007,-0.272715619439494,0.9600244494453681
3.8539883333360194,3.853119458333822,0.02882472611963749,-0.09038595110177994,0.24655315279960632,-0.10026545077562332,0.06900152564048767,-0.09298322349786758,-0.07047837227582932,0.10561386495828629,-0.9919065237045288,-0.060569160320970226,-0.01944535940718307,-0.2736915772359092,0.9597114471314078
3.854092749999836,3.853223958336457,0.029704688116908073,-0.08022968471050262,0.2280147522687912,-0.07469546794891357,0.07702462375164032,-0.07540199905633926,-0.06971923261880875,0.10741385072469711,-0.9917668700218201,-0.06135354864878283,-0.018769965782668093,-0.2746670302994884,0.9593963120931138
3.860942999999679,3.8600740833353484,0.028556324541568756,-0.05426495522260666,0.247671440243721,-0.0639924556016922,0.045880381017923355,-0.03788130357861519,-0.06870880722999573,0.10875511169433594,-0.9916911721229553,-0.061873530810011235,-0.01805728573513145,-0.2753030896314473,0.9591942414911693
3.879033208337205,3.8781641666646465,0.026235664263367653,-0.023990817368030548,0.23743194341659546,-0.09928826242685318,-0.0427485890686512,0.020873120054602623,-0.06887031346559525,0.11034920811653137,-0.991503894329071,-0.06266976677843315,-0.017904193549989806,-0.27546418378810844,0.9590991627666688
3.9100443333372823,3.9091753750035423,0.02626776695251465,-0.01252686232328415,0.212103933095932,-0.1537594199180603,-0.07184480875730515,0.11913680285215378,-0.07012566179037094,0.11302229762077332,-0.9911146759986877,-0.06412503977338259,-0.018183098176196722,-0.27480458903846183,0.959186961671018
3.9106268750038,3.909757958332193,0.02629552222788334,-0.0010635661892592907,0.1867671012878418,-0.20823058485984802,-0.10094102472066879,0.21740050613880157,-0.07137683033943176,0.11569596081972122,-0.990716814994812,-0.06558010053477649,-0.0184619352778314,-0.27414425974378004,0.9592722058170111
3.9445107916690176,3.9436419583362294,0.0213059950619936,-0.03830995038151741,0.19745032489299774,-0.22103837132453918,-0.046487607061862946,0.2894311547279358,-0.07194137573242188,0.12040405720472336,-0.9901148080825806,-0.06788921433404722,-0.018266205853317813,-0.2715900769514775,0.9598417295192092
3.9447368750043097,3.9438680416642455,0.01575029082596302,-0.07988860458135605,0.19738014042377472,-0.19705992937088013,-0.01668049581348896,0.2785276174545288,-0.0717286765575409,0.12510448694229126,-0.9895473122596741,-0.07008699861241983,-0.01772447052735738,-0.26881515739172474,0.9604748405261848
3.9740063749995898,3.9731375416668016,0.007135096471756697,-0.11689643561840057,0.18209140002727509,-0.12981615960597992,0.008645905181765556,0.22285503149032593,-0.07122776657342911,0.12873190641403198,-0.9891181588172913,-0.07173595456870036,-0.01717199454655211,-0.2664080334369324,0.9610336420632545
3.9741055833364953,3.9732367916658404,-0.0012912198435515165,-0.14038515090942383,0.15570604801177979,-0.0372295007109642,-0.022689418867230415,0.1376544088125229,-0.0708661824464798,0.13061979413032532,-0.9888966083526611,-0.07257329122520098,-0.016876669390791812,-0.2646546525068086,0.9614603364106183
4.0060933333370485,4.005224541666394,-0.0009133949060924351,-0.14105324447155,0.1157350167632103,0.031025834381580353,-0.009959710761904716,0.05947518348693848,-0.07091169059276581,0.13078196346759796,-0.9888718724250793,-0.07264096187179166,-0.016951198894458938,-0.26367347529289653,0.9617234669580664
4.044810958337621,4.043942166666966,-0.0019201543182134628,-0.12445040792226791,0.06421787291765213,0.055424898862838745,-0.050857070833444595,-0.037373483180999756,-0.07146928459405899,0.1298220306634903,-0.9889582395553589,-0.07224628871888436,-0.01735955526372721,-0.2635215527082751,0.9617875732807851
4.045077750000928,4.04420891666814,-0.00012039819557685405,-0.09644605964422226,0.04667481780052185,0.05828063562512398,0.003291355213150382,-0.02667209319770336,-0.0719010978937149,0.12867867946624756,-0.9890763759613037,-0.07175444635152887,-0.017695184934705656,-0.26385293995571374,0.9617274240578312
4.070280166670273,4.069411166667123,0.003821408608928323,-0.09952501207590103,0.03879058361053467,0.09122271090745926,-0.0029396088793873787,-0.023525798693299294,-0.07190189510583878,0.1271907389163971,-0.9892687201499939,-0.07103599503542674,-0.01787495937391653,-0.26409750331718523,0.9617103444160022
4.102172541672189,4.101299833331723,0.004691307432949543,-0.10681764781475067,0.020227478817105293,0.1505356878042221,-0.021128976717591286,-0.03632563725113869,-0.07214806228876114,0.12473835051059723,-0.9895630478858948,-0.06988280503357622,-0.01829949708413747,-0.2643744061548514,0.9617107749807369
4.102239666666719,4.1013709166654735,-0.005129844881594181,-0.10728957504034042,0.0012645069509744644,0.20968948304653168,-0.02139626257121563,-0.04154762625694275,-0.0724891871213913,0.12102757394313812,-0.9899988174438477,-0.06813243475527393,-0.018935744586913408,-0.26468084155032867,0.9617397313786172
4.130433666672616,4.129564791663142,-0.0052716596983373165,-0.10118625313043594,-0.02442074567079544,0.22155818343162537,-0.002329556504264474,-0.05727038532495499,-0.07300101220607758,0.11659864336252213,-0.990492582321167,-0.06606084823077189,-0.019739709092871666,-0.26515073107193277,0.9617386667428318
4.136705666671332,4.135836916670087,-0.009123099967837334,-0.09958507865667343,-0.0237882137298584,0.18862426280975342,0.005777584854513407,-0.0781165137887001,-0.07299274951219559,0.11100605875253677,-0.9911355972290039,-0.0633593400585739,-0.02044031844833139,-0.2657563472413718,0.9617386571448182
4.18542033333506,4.1845510416678735,-0.006352048367261887,-0.10458629578351974,-0.028292832896113396,0.14119242131710052,0.0036862329579889774,-0.09273498505353928,-0.07309956848621368,0.10545941442251205,-0.991733193397522,-0.06070391443689031,-0.02117604661108487,-0.26663590158650724,0.9616506023179718
4.185786458336224,4.184917583334027,-0.0011576955439522862,-0.11065658926963806,-0.02358439937233925,0.10880909115076065,0.013447355479001999,-0.13003188371658325,-0.07318928837776184,0.09977202117443085,-0.9923149347305298,-0.05798602513476026,-0.02191267696861602,-0.2677506539411686,0.9614919862720331
4.224612458339834,4.223743208334781,0.0008958278922364116,-0.10687831789255142,-0.025176554918289185,0.07782243192195892,-0.010093921795487404,-0.18125297129154205,-0.07381036877632141,0.0946425199508667,-0.9927712678909302,-0.05562450563381576,-0.022809421463151052,-0.2693326635326159,0.9611687364344911
4.224778541669366,4.2239096666671685,3.0595252610510215e-05,-0.08333928883075714,-0.03049222007393837,0.03236708417534828,-0.010722040198743343,-0.21222953498363495,-0.07473590970039368,0.09031368792057037,-0.9931052327156067,-0.05370470827376876,-0.02373164188332698,-0.2712753367822698,0.9607091977593509
4.2403144583367975,4.239445458333648,0.0016732747899368405,-0.04979412257671356,-0.02961479127407074,-0.02225598134100437,0.01846551150083542,-0.1966027170419693,-0.07544121146202087,0.08734217286109924,-0.9933176636695862,-0.052419005571651425,-0.024360149562402497,-0.273390640919171,0.9601647134476843
4.26894337500562,4.268074583334965,0.002050371142104268,-0.03470440208911896,-0.006253763101994991,-0.04966709762811661,0.010885362513363361,-0.15596763789653778,-0.07531477510929108,0.08538837730884552,-0.9934971332550049,-0.051502510717477926,-0.024473127326921036,-0.27513680913987176,0.959712483416529
4.300137250000262,4.299268291666522,-0.0020320515614002943,-0.016105851158499718,-0.0136806545779109,-0.05845890939235687,-0.024968143552541733,-0.1264035552740097,-0.0758591890335083,0.08374365419149399,-0.9935956597328186,-0.05082232860624063,-0.02488466890763071,-0.27659669746530924,0.9593184762585236
4.300321916671237,4.2994530416690395,-0.0022526343818753958,0.004673409275710583,-0.010742581449449062,-0.06599728018045425,-0.02428971603512764,-0.08811626583337784,-0.0766746774315834,0.08275996148586273,-0.9936155080795288,-0.0504921748339506,-0.025353170019640846,-0.2777432167234946,0.9589923079559178
4.332365624999511,4.331496500002686,-0.011085751466453075,0.0020545287989079952,-0.0007911882712505758,-0.06509324163198471,-0.034071847796440125,-0.057382065802812576,-0.0773271843791008,0.08259071409702301,-0.9935790300369263,-0.0505203420373249,-0.025655020747781945,-0.2784210358659845,0.9587862446872099
4.337277208338492,4.336408291666885,-0.011654150672256947,-0.004176480229943991,-0.012916706502437592,-0.06504689157009125,-0.0336194671690464,-0.040775127708911896,-0.07813242822885513,0.08289525657892227,-0.9934906363487244,-0.050793820218077886,-0.02597408512662579,-0.27891037183409934,0.9586210199945522
4.370459791673056,4.369590791669907,-0.010584280826151371,-0.007760792039334774,-0.009913810528814793,-0.04739261791110039,-0.011834079399704933,-0.033830977976322174,-0.07851739972829819,0.08338143676519394,-0.9934196472167969,-0.05109277283000938,-0.02607130746114847,-0.2792871476112329,0.9584927852680993
4.401818583333807,4.400949791663152,-0.016278088092803955,-0.004875902086496353,0.0031763147562742233,-0.029814835637807846,-0.02684231661260128,-0.03869079425930977,-0.07888592779636383,0.08406171947717667,-0.993333101272583,-0.05148207515702649,-0.026135152742351505,-0.27962757248382275,0.9583709012148552
4.4030420833369135,4.402173291666259,-0.017175957560539246,0.005963505711406469,0.00515272282063961,-0.023683732375502586,-0.045468710362911224,-0.032627545297145844,-0.0800771713256836,0.08449889719486237,-0.9932006597518921,-0.05187190496506215,-0.02662640204123147,-0.28000708932211393,0.9582255162636348
4.438795750000281,4.437926916667493,-0.017182879149913788,0.006403549108654261,0.0035293244291096926,-0.029775721952319145,-0.05946562811732292,-0.016192536801099777,-0.08153299987316132,0.08490991592407227,-0.9930471777915955,-0.05228250528611787,-0.02725716901284593,-0.2802240846223098,0.9581221453369922
4.4389690833340865,4.438100208331889,-0.01801334321498871,0.0054358914494514465,0.0007913000881671906,-0.018881870433688164,-0.0454089492559433,0.00272954860702157,-0.08286326378583908,0.08516447246074677,-0.9929152727127075,-0.052595712225128155,-0.027857921048404847,-0.2802854889901961,0.9580697594407748
4.476288375000877,4.4754191250031,-0.016276855021715164,-0.002374941948801279,0.0017742853378877044,-0.005001001991331577,-0.03391844406723976,0.014939381740987301,-0.08406845480203629,0.08516941219568253,-0.9928135275840759,-0.05276646687788063,-0.028441910518034238,-0.28019523291448567,0.9580695939322268
4.476799916672462,4.475930958331446,-0.009690271690487862,-0.010521292686462402,-0.006643680855631828,-0.009777991101145744,-0.02663067914545536,0.011351952329277992,-0.08518881350755692,0.08532389998435974,-0.9927047491073608,-0.052995400737639475,-0.028967483458566475,-0.28004511782157376,0.9580851539248091
4.51262883333402,4.511759916669689,-0.0035160810220986605,-0.028628680855035782,-0.00840475969016552,-0.02654992789030075,-0.010129187256097794,0.007661046925932169,-0.08591070771217346,0.0858190506696701,-0.9925998449325562,-0.05333307181943827,-0.029251687437436835,-0.279931170729948,0.9580910282832434
4.518477208337572,4.517608416666917,-0.002628559246659279,-0.037260107696056366,0.010090170428156853,-0.035397231578826904,0.014542757533490658,-0.0047583500854671,-0.0860883817076683,0.0866459533572197,-0.992512583732605,-0.05375666473342732,-0.029221851080070298,-0.27992037709019757,0.958071407471503
4.556720583335846,4.555851708333648,-0.004477382637560368,-0.03768247738480568,0.014495561830699444,-0.04751008376479149,0.0009937799768522382,-0.01691960170865059,-0.08635687083005905,0.087458036839962,-0.9924180507659912,-0.05419082641128232,-0.029228886804320477,-0.2800670172538445,0.958003830374943
4.560565875006432,4.559697083335777,3.099100649706088e-05,-0.03553137928247452,0.018106210976839066,-0.061679013073444366,-0.014244643971323967,-0.0027337439823895693,-0.08687783032655716,0.08821632713079453,-0.9923054575920105,-0.054634465273399276,-0.029365685827665997,-0.28019817099128685,0.9579361502468424
4.5793807083391584,4.578511874999094,0.006228375248610973,-0.036526646465063095,0.04672456905245781,-0.08195310831069946,-0.01139023806899786,0.021464206278324127,-0.08726125210523605,0.08906913548707962,-0.9921956062316895,-0.055099142686576084,-0.029432442663024444,-0.28016390415112963,0.9579174503430965
4.61126191666699,4.61039295833325,0.011042319238185883,-0.05812676623463631,0.10648687183856964,-0.06870828568935394,0.0011745200026780367,0.060308799147605896,-0.08731859177350998,0.09004228562116623,-0.9921027421951294,-0.055566142924240655,-0.029343312147025676,-0.27982171828165436,0.9579932784209396
4.625693791669619,4.624824833335879,0.012702207081019878,-0.09272748231887817,0.1572817862033844,0.003990232478827238,-0.008259858936071396,0.0795123502612114,-0.08735267072916031,0.09033133089542389,-0.9920734763145447,-0.05568982753261788,-0.029358259063181572,-0.279149764777498,0.9581816685588657
4.655328375003592,4.654459333331033,0.004175784066319466,-0.11398953944444656,0.16812187433242798,0.09594264626502991,-0.08285940438508987,0.06614192575216293,-0.08807110786437988,0.08923916518688202,-0.9921087622642517,-0.05524162267936174,-0.02989927067240307,-0.2784123496471376,0.9584053007216311
4.657132083339093,4.656263041666534,-0.00030415295623242855,-0.12705683708190918,0.1065697968006134,0.15841108560562134,-0.0865037813782692,0.0606779120862484,-0.08977477997541428,0.08675449341535568,-0.9921764731407166,-0.05426167896199561,-0.03110358883560515,-0.2777467070895007,0.9586161482438981
4.7001910416729515,4.699322208332887,0.006575706880539656,-0.12904232740402222,0.09980235993862152,0.18382716178894043,-0.018368123099207878,0.06841446459293365,-0.09067857265472412,0.08337582647800446,-0.9923839569091797,-0.05273506874252332,-0.03204753047542086,-0.27704020595359463,0.9588746924993313
4.700804625004821,4.699935791664757,0.014985436573624611,-0.12322583049535751,0.1244216039776802,0.1659458726644516,0.04592299088835716,0.07537341862916946,-0.09037735313177109,0.07996264845132828,-0.992692232131958,-0.051021304980317476,-0.032414467940685046,-0.27631351705258483,0.9591646940362675
4.73559387500427,4.734724916663254,0.029869444668293,-0.12689055502414703,0.15291056036949158,0.14129237830638885,0.047242045402526855,0.07469651848077774,-0.08930804580450058,0.07699233293533325,-0.9930238127708435,-0.049412151961878044,-0.03235029134899487,-0.27553419834496606,0.959475163562567
4.738704791670898,4.737835874999291,0.03824393451213837,-0.1289064735174179,0.18596424162387848,0.13981515169143677,0.0637357160449028,0.0718020424246788,-0.08795404434204102,0.07435924559831619,-0.9933452606201172,-0.04792839463326561,-0.032097376886793996,-0.2748059634742145,0.9597677831728423
4.772303791673039,4.771434833332023,0.04415328428149223,-0.14050257205963135,0.2089066505432129,0.16070204973220825,0.015612393617630005,0.04206472635269165,-0.08692624419927597,0.07150964438915253,-0.9936448931694031,-0.046390809421965884,-0.03202246377102555,-0.2742160805532496,0.9600145370044306
4.802843833334919,4.801975041664264,0.05558263510465622,-0.14407473802566528,0.20912688970565796,0.1725049912929535,0.029215874150395393,-0.020800065249204636,-0.08662280440330505,0.06821098178625107,-0.9939032793045044,-0.0447523495761628,-0.032335440816032235,-0.2740735325026815,0.960122464355256
4.802985583337431,4.802116541664873,0.06551159173250198,-0.1317046731710434,0.24337254464626312,0.16558028757572174,0.01523598749190569,-0.09217391908168793,-0.0861516147851944,0.0646493211388588,-0.9941822290420532,-0.04298595467407698,-0.03257417805811446,-0.2745766496499572,0.9600513413848087
4.820528958334762,4.819660166664107,0.07734298706054688,-0.09813842922449112,0.2665254771709442,0.1344265639781952,0.0036623822525143623,-0.13852126896381378,-0.08612710982561111,0.06143941357731819,-0.9943879246711731,-0.04147184259415925,-0.032956475646023865,-0.2756599570852452,0.9597944448889882
4.888821208332956,4.887952249999216,0.05125729367136955,-0.06719066947698593,0.27608227729797363,0.093157097697258,-0.03913488611578941,-0.10451260954141617,-0.0870346650481224,0.05936054885387421,-0.99443519115448,-0.04063136257069052,-0.03363792381896902,-0.2766614645246125,0.9595185769954259
4.888994708337123,4.888125791665516,0.025166738778352737,-0.03624074533581734,0.28563451766967773,0.0518876314163208,-0.08193215727806091,-0.07050395011901855,-0.08793754875659943,0.0572795569896698,-0.9944777488708496,-0.03979073849638576,-0.03431923656091294,-0.2776622017347625,0.9592405525880786
4.8895133750047535,4.888644458333147,0.01138373278081417,-0.018130406737327576,0.28533005714416504,-0.0029931047465652227,-0.08097340911626816,-0.028704874217510223,-0.08961173892021179,0.056552838534116745,-0.9943699240684509,-0.03969360767165773,-0.03520600986392627,-0.2781513917175891,0.9590706848198643
4.902763916667027,4.901894958333287,0.010568734258413315,-0.027165690436959267,0.23608189821243286,-0.05110172927379608,-0.09296729415655136,-0.020609278231859207,-0.09161369502544403,0.0571131594479084,-0.9941554069519043,-0.040251865709266615,-0.036084232611591466,-0.278333953857078,0.9589618198960516
4.927899166672432,4.927030333332368,0.012563375756144524,-0.016538424417376518,0.19376476109027863,-0.0790126621723175,0.0020054099150002003,-0.03480442240834236,-0.09268658608198166,0.058378685265779495,-0.9939824342727661,-0.041023607619035056,-0.036412003333428845,-0.27862835261260493,0.9588312085285079
4.975073791669274,4.9742048749976675,0.002782379509881139,-0.006618794985115528,0.21887734532356262,-0.08904825896024704,0.038998547941446304,-0.07240935415029526,-0.09149984270334244,0.060054562985897064,-0.9939925670623779,-0.041693682197682824,-0.03557176895794898,-0.2794411370880131,0.9585973621385022
4.975137208333763,4.974268458332517,-0.006996141746640205,0.0032989955507218838,0.24398525059223175,-0.09908384829759598,0.0759916827082634,-0.11001429706811905,-0.09031572937965393,0.061732225120067596,-0.993998110294342,-0.04236363701078051,-0.03473148747028852,-0.2802533930411296,0.9583616485205421
4.978976291669824,4.978107416667626,-0.006596646271646023,-0.0007493444136343896,0.2186935395002365,-0.10958902537822723,0.0020459562074393034,-0.12805846333503723,-0.08989924192428589,0.06357830762863159,-0.9939194917678833,-0.04323738720232105,-0.03421679698295351,-0.28148352309434543,0.9579804809795935
5.01457025000127,5.013701249998121,0.0026101155672222376,0.006513110361993313,0.1660909801721573,-0.09752345085144043,-0.007999901659786701,-0.1274493932723999,-0.0903635174036026,0.06544934213161469,-0.9937559366226196,-0.044251330133976884,-0.03411541151987229,-0.28280832590855703,0.9575474998651845
5.048125166671525,5.047256083336833,-0.012708209455013275,0.022376349195837975,0.16275706887245178,-0.06895875930786133,0.012518764473497868,-0.1099664717912674,-0.09033934026956558,0.06688782572746277,-0.9936623573303223,-0.04498146874830642,-0.033845268390436445,-0.28397885043915294,0.9571765406235352
5.048531375003222,5.047662458331615,-0.02190861478447914,0.02530519664287567,0.17779648303985596,-0.07427952438592911,0.005398338194936514,-0.1020081639289856,-0.09034640341997147,0.06811029464006424,-0.9935786128044128,-0.045606808429629116,-0.033625847070559746,-0.2850097036198885,0.9568482512030396
5.07322645833483,5.072357666664175,-0.020050518214702606,0.02755606174468994,0.16205595433712006,-0.09243239462375641,-0.04787302389740944,-0.11145003885030746,-0.09096875786781311,0.06962315738201141,-0.993416965007782,-0.046461159001030934,-0.03365810840143798,-0.2860595674391195,0.9564926810880453
5.121833583340049,5.120964333334996,-0.012664621695876122,0.048831384629011154,0.12429893761873245,-0.10256169736385345,-0.08348239958286285,-0.06927125155925751,-0.09274724870920181,0.0714334100484848,-0.9931239485740662,-0.047613456314143196,-0.03421948742579995,-0.28673626378460837,0.9562134280182044
5.122059333334619,5.1211905000018305,-0.005276752635836601,0.0701097846031189,0.08653523027896881,-0.1126909852027893,-0.11909177899360657,-0.0270924661308527,-0.09452780336141586,0.07324062287807465,-0.9928244352340698,-0.04876568811245746,-0.03478076690992403,-0.287412342061874,0.9559321123571658
5.122327250006492,5.121458416666428,-0.006481340155005455,0.08020531386137009,0.048196543008089066,-0.14029692113399506,-0.0727931559085846,0.01692098379135132,-0.09645336866378784,0.07581431418657303,-0.9924459457397461,-0.05028649213906566,-0.03533127473152318,-0.2874863706374791,0.9558108194154955
5.15994425000099,5.159075249997841,-0.025061769410967827,0.0884828045964241,0.06397032737731934,-0.12193378806114197,-0.08333918452262878,0.0432574562728405,-0.09782164543867111,0.07856771349906921,-0.992097795009613,-0.05179873881137283,-0.035608851918037934,-0.2871778319008698,0.9558125052547304
5.160178541671485,5.159309583330469,-0.023851176723837852,0.10662499070167542,0.05876384302973747,-0.07149617373943329,-0.13506004214286804,0.06950710713863373,-0.10014096647500992,0.08060253411531448,-0.9917030930519104,-0.053096370372294116,-0.036458586643137156,-0.28666973442525345,0.9558618519645311
5.192643375004991,5.191774333332432,-0.022323088720440865,0.10461470484733582,0.06675087660551071,0.004753899294883013,-0.1604425311088562,0.1022617518901825,-0.10288787633180618,0.08142167329788208,-0.9913549423217773,-0.053853604702835754,-0.03771369108909378,-0.2857324303373855,0.9560514086038341
5.202655416673224,5.2017865416637505,-0.032864928245544434,0.09213955700397491,0.0286780446767807,0.05353735387325287,-0.16549284756183624,0.11447370797395706,-0.10602371394634247,0.08105714619159698,-0.991054356098175,-0.05408548504491746,-0.03933938256299028,-0.2845640072786549,0.956321258912258
5.239106958339107,5.238238124999043,-0.0409378819167614,0.08230046927928925,-0.031034182757139206,0.05646401643753052,-0.11472707241773605,0.1263015866279602,-0.10908322036266327,0.08097576349973679,-0.9907289147377014,-0.054434708950722555,-0.040895043300490486,-0.28329061044657805,0.9566142199904674
5.23924262500077,5.238373749998573,-0.03210166469216347,0.07254491001367569,-0.03801572695374489,0.03641469404101372,-0.06041891500353813,0.12801308929920197,-0.11091773211956024,0.08199451118707657,-0.9904413819313049,-0.05513065376587484,-0.041712250687525945,-0.28192369521705035,0.956942826317915
5.270357749999675,5.269488791665935,-0.003359475638717413,0.051963187754154205,-0.027730096131563187,0.00656178267672658,-0.002912132767960429,0.13186126947402954,-0.11172977089881897,0.08460275083780289,-0.9901307225227356,-0.05644644651643146,-0.04181434718089987,-0.28058220594637373,0.9572558869215905
5.306898875001934,5.3060297083357,0.00822735670953989,0.002554798498749733,-0.05194179713726044,0.004760856740176678,0.030034521594643593,0.1294822245836258,-0.11196491122245789,0.08726091682910919,-0.9898734092712402,-0.05770443941006675,-0.04163513814981795,-0.2792412629090165,0.9575807721118997
5.30708295833756,5.306213999996544,-0.0002140545257134363,-0.0462600477039814,-0.07774507999420166,0.03839082270860672,0.042042773216962814,0.12128501385450363,-0.11159723252058029,0.08899577707052231,-0.9897604584693909,-0.058433077591176434,-0.04129566543632534,-0.2779267916967314,0.9579336947962824
5.33688400000392,5.33601504167018,-0.017612239345908165,-0.055278729647397995,-0.11704662442207336,0.027648596093058586,0.010931957513093948,0.08128833770751953,-0.11144234985113144,0.08956603705883026,-0.9897264838218689,-0.058642643301880716,-0.04120427426337379,-0.27690414372085415,0.9582208892064388
5.348732166668924,5.347863249997317,-0.026393352076411247,-0.02223276160657406,-0.14599701762199402,-0.031913403421640396,-0.022509684786200523,0.09845083206892014,-0.11159276962280273,0.09021251648664474,-0.9896508455276489,-0.05894128244079089,-0.041237251208883295,-0.2760907289799117,0.9584357846376361
5.385804708334035,5.384935833331838,-0.018871905282139778,-0.027497705072164536,-0.1547408252954483,-0.06153257191181183,0.011900277808308601,0.17242711782455444,-0.11139132082462311,0.09171570092439651,-0.9895353317260742,-0.05958395480477404,-0.04101313350401871,-0.2747910896667758,0.9587790903233089
5.38600050000241,5.385131666669622,-0.008358622901141644,-0.05063223838806152,-0.15922535955905914,-0.05540093034505844,0.05828164890408516,0.17580154538154602,-0.1101718619465828,0.09337210655212402,-0.9895169734954834,-0.06014257788680063,-0.04030371957073048,-0.2730870337640587,0.9592610269434028
5.4046482916673995,5.4037793333336595,-0.004931930918246508,-0.03901757672429085,-0.1575104296207428,-0.08452785015106201,0.06969420611858368,0.12018144130706787,-0.10863953083753586,0.09499960392713547,-0.9895314574241638,-0.060663263502124365,-0.03942374709296968,-0.2717854714037777,0.9596344558304016
5.4421672916723765,5.441298124998866,0.0026025455445051193,-0.016219476237893105,-0.14825887978076935,-0.1507171094417572,0.05894465744495392,0.07992525398731232,-0.10723119974136353,0.0975491926074028,-0.9894370436668396,-0.061665542706726785,-0.038455775461981825,-0.2708656025756231,0.9598698672614702
5.442711916672124,5.441842958331108,0.004981477279216051,0.006698979530483484,-0.12399261444807053,-0.18879447877407074,0.06307203322649002,0.0699877068400383,-0.1058129370212555,0.10119350999593735,-0.9892236590385437,-0.06320967143765807,-0.037318796293443944,-0.27022106351354125,0.9599960282220048
5.46282291667012,5.461953999998514,0.013998008333146572,0.01790923811495304,-0.0893949568271637,-0.16695548593997955,0.01623321697115898,0.028520068153738976,-0.10450515151023865,0.10486545413732529,-0.988980233669281,-0.06478919311850624,-0.03622483515865584,-0.2697042960428372,0.960077917837929
5.519211250000808,5.518342291667068,0.009804559871554375,0.03717094659805298,-0.11497766524553299,-0.16258710622787476,-0.009131081402301788,0.057983096688985825,-0.10413526743650436,0.10824093222618103,-0.9886555075645447,-0.06637040483590034,-0.03559780693969015,-0.2695908619603228,0.9600252009308495
5.519420000004175,5.518551083332568,0.005610041320323944,0.056433916091918945,-0.14057177305221558,-0.15821872651576996,-0.03449537977576256,0.08744612336158752,-0.10376416146755219,0.11161525547504425,-0.9883192777633667,-0.06795146626543054,-0.034970653394145464,-0.26947652175898273,0.9599697533149721
5.521988125001371,5.521119249999174,-0.0053458428010344505,0.06552295386791229,-0.19335559010505676,-0.1821083277463913,-0.08902842551469803,0.13151150941848755,-0.10461187362670898,0.1151762306690216,-0.9878212213516235,-0.06976346923292095,-0.03496338290758745,-0.26859399865832523,0.9600873558432155
5.561822750001738,5.560953541666095,-0.029789995402097702,0.05521101504564285,-0.23978291451931,-0.22681425511837006,-0.10384277999401093,0.1377064287662506,-0.10624213516712189,0.11956927925348282,-0.987125039100647,-0.07207172365483865,-0.035258419155697884,-0.26728083306114747,0.9602724857147739
5.5620886250035255,5.5612196666697855,-0.04024449363350868,0.03836189955472946,-0.23181135952472687,-0.24721243977546692,-0.0182021614164114,0.1508367955684662,-0.10703891515731812,0.12472593039274216,-0.9864006042480469,-0.07463567260870516,-0.03506024639802522,-0.2658942686928735,0.9604688360725819
5.600747291668085,5.5998784999974305,-0.035281263291835785,0.007056104019284248,-0.2752685844898224,-0.26615896821022034,0.03415801748633385,0.1299416422843933,-0.10679444670677185,0.13005337119102478,-0.9857388138771057,-0.07714963461505428,-0.034329409852640824,-0.26467029619865273,0.9606346332017476
5.629528125005891,5.628659250003693,-0.01173542719334364,0.008609148673713207,-0.30962425470352173,-0.3047461211681366,0.08397822827100754,0.09017927199602127,-0.10529018938541412,0.13580457866191864,-0.9851248860359192,-0.07971299476388236,-0.03291472891601381,-0.2637317180238661,0.9607329752505492
5.63033654166793,5.629467749997275,-0.013460245914757252,0.034150078892707825,-0.2994481921195984,-0.39258965849876404,0.08844279497861862,0.08354882895946503,-0.10304401069879532,0.14285583794116974,-0.9843648672103882,-0.0828246428949221,-0.03094597653419863,-0.2631107150820964,0.960705485703252
5.643605791672599,5.642736708330631,-0.02916822023689747,0.034534621983766556,-0.2294110357761383,-0.4211254119873047,0.0815318301320076,0.09446386992931366,-0.1008325070142746,0.15127328038215637,-0.9833357334136963,-0.08661030162401175,-0.028823190253126345,-0.2624158307122133,0.9606276992375555
5.669589291668672,5.668720374997065,-0.04230280593037605,0.010104806162416935,-0.1503521353006363,-0.37725162506103516,0.025066262111067772,0.06669793277978897,-0.0994272530078888,0.15948984026908875,-0.9821798205375671,-0.09041341927699906,-0.027120016672998612,-0.26173699186584787,0.9605121162286222
5.702712625003187,5.701843666669447,-0.031981851905584335,0.0018649202538654208,-0.10886001586914062,-0.2952144145965576,-0.008174299262464046,-0.02670183591544628,-0.0993925929069519,0.1661461442708969,-0.9810792803764343,-0.09366067037225771,-0.026230304621815262,-0.2616773298267376,0.9602418989594403
5.702754625002854,5.701885875001608,-0.007869387976825237,0.0318506695330143,-0.08376634865999222,-0.24646493792533875,-0.02918180823326111,-0.09203854948282242,-0.09985551983118057,0.17125818133354187,-0.9801527857780457,-0.0962400452835559,-0.02571865135153528,-0.2622827600665025,0.9598353726877085
5.745004083335516,5.744134958331415,0.005521953571587801,0.0688275694847107,-0.1440257728099823,-0.2845400869846344,0.02797590382397175,-0.031271468847990036,-0.10049919039011002,0.17624413967132568,-0.9792026877403259,-0.0987876007362664,-0.02529144217100615,-0.26304436485425325,0.9593794123916471
5.751824083337851,5.750955124996835,0.014204022474586964,0.08538612723350525,-0.16150617599487305,-0.35935333371162415,0.0009689158177934587,0.016426054760813713,-0.10039054602384567,0.18232430517673492,-0.9781000018119812,-0.10175432422381485,-0.024414292553579776,-0.2631898699736863,0.9590521077546021
5.768131666671252,5.767262875000597,-0.010387346148490906,0.09984593838453293,-0.10362903773784637,-0.44051802158355713,0.010433641262352467,0.03448032587766647,-0.09984037280082703,0.1902969628572464,-0.976636528968811,-0.10558454819336587,-0.023100151480684214,-0.2630486329577744,0.9587093333887479
5.801871416668291,5.801002375003009,-0.014870979823172092,0.08598977327346802,-0.049795154482126236,-0.4610626995563507,-0.06487645208835602,0.02500922605395317,-0.10037078708410263,0.19940020143985748,-0.9747642278671265,-0.11011913342725313,-0.022173515676469965,-0.26277558280667135,0.9582958431554232
5.805018541672325,5.804149583331309,-0.013950368389487267,0.06695238500833511,-0.07591131329536438,-0.40610530972480774,-0.08197350800037384,-0.003638107795268297,-0.10221991688013077,0.20795036852359772,-0.9727835059165955,-0.11457320683532382,-0.021936803196782092,-0.26270485840178653,0.9577984354697077
5.83631191666791,5.835442833333218,-0.048897359520196915,0.05231591686606407,-0.11834193766117096,-0.30215293169021606,-0.12731856107711792,-0.01925276219844818,-0.10441554337739944,0.2147563248872757,-0.9710701107978821,-0.11822554044960797,-0.022083239544411618,-0.2627757246577104,0.9573316191112696
5.864739208336687,5.863870333334489,-0.05750144645571709,0.058623842895030975,-0.16100721061229706,-0.2559366226196289,-0.0979236289858818,-0.04717150703072548,-0.10684997588396072,0.22000820934772491,-0.9696285128593445,-0.12115291406858272,-0.02253226705890528,-0.26300701981686314,0.9568915421613388
5.864818041671242,5.863949250000587,-0.06218516454100609,0.06469105184078217,-0.1292252540588379,-0.22850902378559113,0.004620021674782038,0.008639652281999588,-0.10771870613098145,0.22482898831367493,-0.9684258103370667,-0.12365563620740806,-0.022279055099906523,-0.2632233826694825,0.9565177568368508
5.899309166670719,5.898440375000064,-0.05200668424367905,0.043782711029052734,-0.10678279399871826,-0.1549735963344574,0.06778942793607712,0.048888035118579865,-0.10694501549005508,0.22868303954601288,-0.9676088094711304,-0.12544697277240158,-0.021415811420069323,-0.2629884748783656,0.9563688356442277
5.928237500003888,5.927368249998835,-0.032545387744903564,0.02082919143140316,-0.08114183694124222,-0.07897985726594925,0.10982702672481537,0.02855261228978634,-0.10487264394760132,0.23098424077033997,-0.9672890305519104,-0.12629330961166374,-0.020136789611641857,-0.2627080503159466,0.9563623087830463
5.928330208334955,5.92746145833371,-0.01586790941655636,0.021421022713184357,-0.08175713568925858,-0.059508174657821655,0.1287163347005844,0.0020979433320462704,-0.10255998373031616,0.2322804182767868,-0.9672265648841858,-0.126618573220408,-0.018826516499721453,-0.26280377267592636,0.9563196886823371
5.9627209166719695,5.961851791667868,-0.010052317753434181,0.02091815322637558,-0.052957065403461456,-0.0359463170170784,0.10525353997945786,0.04134140908718109,-0.10004929453134537,0.2332451343536377,-0.9672573804855347,-0.12675023661719348,-0.017483554324605466,-0.26275632754599265,0.9563408353773171
5.966692458336183,5.965823541664577,0.012147052213549614,0.025310978293418884,-0.07147761434316635,-0.05344564840197563,0.053997717797756195,0.04947223141789436,-0.09856022894382477,0.23411595821380615,-0.9671998620033264,-0.12697106766563312,-0.01668541356939717,-0.26243757535796775,0.9564131965604191
5.995968500006711,5.995099708336056,0.0018289957661181688,0.0404047891497612,-0.0714389756321907,-0.075769804418087,0.04189885035157204,0.10108941048383713,-0.09735232591629028,0.23557034134864807,-0.9669690728187561,-0.12751448430251539,-0.015985088545921237,-0.2618219756178917,0.9565216375877535
6.033320708338579,6.032451708335429,-0.003526566084474325,0.04257204383611679,-0.06924892961978912,-0.07404814660549164,-0.00803193636238575,0.13098734617233276,-0.09646701067686081,0.2372300922870636,-0.966651976108551,-0.12819610090230257,-0.015484596761856944,-0.26068371558325365,0.9567496574094356
6.034259041669429,6.033390208336641,-0.006841277703642845,0.04479297623038292,-0.08100297302007675,-0.08975239843130112,-0.0345403328537941,0.11823316663503647,-0.09622140228748322,0.23908327519893646,-0.9662197828292847,-0.12905972880256594,-0.015287050144235701,-0.25942510703046306,0.9569788297601537
6.051706333339098,6.050837416667491,-0.007601052988320589,0.05511750653386116,-0.08438087999820709,-0.10344855487346649,-0.015176964923739433,0.07215024530887604,-0.09635999798774719,0.241146981716156,-0.965692937374115,-0.13008565157763544,-0.015206527187417763,-0.25849075453713716,0.9570939291943429
6.083677750000788,6.082808708335506,-0.007946401834487915,0.0720713883638382,-0.046226389706134796,-0.09155631065368652,-0.004543491639196873,0.049849510192871094,-0.09619259834289551,0.24322204291820526,-0.9651890993118286,-0.1310816403017459,-0.014934436867211102,-0.2578707552409502,0.9571296093859152
6.086387083334557,6.08551783333678,-0.009239284321665764,0.0906243771314621,0.0027772607281804085,-0.0526822954416275,-0.03578464314341545,0.05318925902247429,-0.096162810921669,0.24475592374801636,-0.9648042321205139,-0.1318305751311011,-0.014783832169973319,-0.2573827849693219,0.9571604198681993
6.116384291672148,6.115515375000541,-0.011927896179258823,0.0851108729839325,0.029675038531422615,0.01646532490849495,-0.039070483297109604,0.07087374478578568,-0.09656325727701187,0.24526803195476532,-0.9646341800689697,-0.13212843361912785,-0.014999028535771584,-0.2567446253234852,0.9572873664707031
6.149134166669683,6.148265124997124,-0.02167476713657379,0.07996079325675964,0.039893414825201035,0.07927314192056656,-0.03990110754966736,0.071846142411232,-0.09706450998783112,0.24459974467754364,-0.9647535681724548,-0.1318521893098583,-0.015433910415381136,-0.2559989298666729,0.9575182855334572
6.151809583338036,6.15094083333679,-0.026198625564575195,0.06665895879268646,0.0478978268802166,0.12382691353559494,-0.04413123428821564,0.1053067296743393,-0.09741510450839996,0.243460550904274,-0.9650063514709473,-0.13131777563767588,-0.015888807700323984,-0.2550191101313,0.9578457148830338
6.188608000004024,6.187738749998971,-0.01593358814716339,0.024350078776478767,0.04747486487030983,0.15024954080581665,-0.03309815749526024,0.10779635608196259,-0.09780655801296234,0.24260954558849335,-0.9651810526847839,-0.13092681906353187,-0.016359272356566444,-0.253787113324984,0.9582184454624569
6.1887180833364255,6.187849291665771,-0.008696667850017548,-0.0004975141491740942,0.05342710390686989,0.16194534301757812,-0.01865497976541519,0.02640405483543873,-0.09812577813863754,0.2420904040336609,-0.9652789831161499,-0.13069756921988832,-0.01669220377801066,-0.25298211285410305,0.9584568164377525
6.2252538750035455,6.224384624998493,-0.0034450048115104437,0.01789245195686817,0.060477279126644135,0.18137989938259125,-0.012140748091042042,-0.00953801441937685,-0.0988500714302063,0.2411404848098755,-0.9654428362846375,-0.13031892982619994,-0.017191140374239102,-0.25281510251381367,0.9585435503074592
6.226408041671675,6.225539083330659,0.015452140010893345,0.030451728031039238,0.030334636569023132,0.16812478005886078,-0.004122093319892883,-0.028153982013463974,-0.09988335520029068,0.23945239186286926,-0.9657566547393799,-0.12962036479279054,-0.01789513666838981,-0.25295099846403,0.9585896087485759
6.263164583338948,6.262295583335799,0.012778840027749538,0.022460907697677612,-0.0013876666780561209,0.1512286514043808,-0.016985859721899033,-0.03306789696216583,-0.10041577368974686,0.23743396997451782,-0.9661996364593506,-0.12869301351361176,-0.018392122916685155,-0.25313068849301223,0.958657656194439
6.264995291669038,6.264126291665889,0.010939355008304119,0.011092226020991802,-0.05960800498723984,0.1182173416018486,-0.050000108778476715,-0.0501527264714241,-0.10136978328227997,0.23521552979946136,-0.9666425585746765,-0.12772498226964854,-0.01910618024430441,-0.25341846801849754,0.958697091281679
6.297171916667139,6.296302958333399,0.002122029662132263,0.02291441708803177,-0.10746076703071594,0.09673018753528595,-0.0724579393863678,-0.06706161797046661,-0.10291403532028198,0.23390553891658783,-0.9667972326278687,-0.12728989278222488,-0.019966320984590353,-0.2538853529511711,0.9586139703378743
6.335758749999513,6.334889874997316,-0.01132587157189846,0.05905274301767349,-0.1505592167377472,0.08491591364145279,-0.07351570576429367,-0.05077256262302399,-0.10451126098632812,0.23298269510269165,-0.9668487310409546,-0.1270549138755285,-0.02080088609318557,-0.25436227482857127,0.9585009715263875
6.342258791672066,6.341389958332002,-0.009121470153331757,0.08592959493398666,-0.16427485644817352,0.10045595467090607,-0.0870308130979538,-0.0224791057407856,-0.10600974410772324,0.23161686956882477,-0.9670137166976929,-0.12658172811676255,-0.021683850855954853,-0.25454721204507913,0.9584949279724391
6.351270291670517,6.3504011666664155,-0.02013362944126129,0.07410427182912827,-0.2122747004032135,0.1110810711979866,-0.09822853654623032,0.00038083322579041123,-0.10777640342712402,0.22976800799369812,-0.9672594666481018,-0.12589899306827396,-0.022796779393146005,-0.25445478543542505,0.9585835007220598
6.366815000001225,6.365945999998075,-0.036534618586301804,0.054129745811223984,-0.2614213824272156,0.13411137461662292,-0.10866095870733261,-0.007623075507581234,-0.10976080596446991,0.22744810581207275,-0.9675846099853516,-0.12501109942883815,-0.02408163523684487,-0.2543236627474021,0.958703103398464
6.401237625002977,6.4003688333323225,-0.04402806609869003,0.049245789647102356,-0.3044584393501282,0.14846815168857574,-0.11348042637109756,-0.047652602195739746,-0.11203991621732712,0.22462044656276703,-0.9679838418960571,-0.12391690984487677,-0.02554745261887993,-0.25440808759912914,0.9587847742891148
6.473273041672655,6.472404083331639,-0.042287953197956085,0.06569065153598785,-0.3016740083694458,0.14986421167850494,-0.07989747822284698,-0.06997846812009811,-0.11340464651584625,0.22156934440135956,-0.9685279726982117,-0.1226145625904081,-0.02648927305339095,-0.25533331513980717,0.9586807131057886
6.473598541670071,6.472729583336331,-0.04055383801460266,0.08213995397090912,-0.2988996207714081,0.15126027166843414,-0.04631452262401581,-0.09230434149503708,-0.11476346105337143,0.2185138761997223,-0.9690619111061096,-0.12131184104201202,-0.027431033186871377,-0.25625763342023344,0.9585733589133723
6.474000125002931,6.473131166669191,-0.038825877010822296,0.09859378635883331,-0.29613542556762695,0.15265636146068573,-0.012731567956507206,-0.11463020741939545,-0.11611618846654892,0.21545381844043732,-0.9695858359336853,-0.12000861346846095,-0.028372691107564265,-0.25718107374793076,0.9584626609915339
6.474379541672533,6.473510625000927,-0.04815707355737686,0.10301857441663742,-0.2934918701648712,0.174085795879364,-0.04094894230365753,-0.11855500936508179,-0.1172504723072052,0.21209177374839783,-0.9701904058456421,-0.11853292845157376,-0.029235960132358293,-0.258216920720014,0.9583417756798392
6.5148792500040145,6.514010333332408,-0.07440030574798584,0.1077534407377243,-0.3170994520187378,0.18614190816879272,-0.10914020240306854,-0.1269923448562622,-0.11936457455158234,0.20824195444583893,-0.9707663655281067,-0.11695309895483053,-0.03063932098525261,-0.25927951361733464,0.9582052487507493
6.530314250005176,6.52944529166416,-0.06303637474775314,0.10791604220867157,-0.3469826281070709,0.17704413831233978,-0.04506152123212814,-0.11061418801546097,-0.12177351117134094,0.2044210582971573,-0.9712792038917542,-0.11542991252525828,-0.03219221282597894,-0.26028328661366257,0.9580668769750251
7.941016250006214,7.940147291665198,0.009130386635661125,0.01587798073887825,0.0020084024872630835,-0.11778067797422409,-0.039392080157995224,0.051031678915023804,-0.07765676826238632,0.08419512212276459,-0.9934186339378357,-0.051225619741081654,-0.025818802261856896,-0.2741387485695493,0.9599776605474004
8.00072524999996,7.99985624999681,0.006096990313380957,0.0127800228074193,0.005651326384395361,-0.11736629903316498,-0.03566695749759674,0.05183770880103111,-0.07825761288404465,0.08719130605459213,-0.9931129813194275,-0.05274296756146614,-0.02572313480394247,-0.27366178248948553,0.9600341055983003
8.0009012083392,8.000032416668546,0.003060630289837718,0.0096823088824749,0.009285030886530876,-0.11695192009210587,-0.031941838562488556,0.05264373496174812,-0.07885530591011047,0.09018724411725998,-0.9927980899810791,-0.054260220928230365,-0.02562747142761639,-0.27318417141032497,0.9600881912540908
8.000963708334893,8.000094916664239,2.0747453163494356e-05,0.006584895309060812,0.012909727171063423,-0.11653754115104675,-0.02821672335267067,0.05344977602362633,-0.07944955676794052,0.09318279474973679,-0.9924740195274353,-0.0557772870096234,-0.025531700108960387,-0.27270581389140164,0.9601398548997165
8.00521049999952,8.004341708336142,0.001817593234591186,-0.0005098417750559747,0.018400365486741066,-0.07660581171512604,-0.06433218717575073,0.0366751030087471,-0.0801042839884758,0.09532905369997025,-0.9922175407409668,-0.05689406937572065,-0.02557899211792265,-0.2722850201539219,0.9601924479362693
8.018451750001987,8.017582874999789,0.006174923852086067,-0.013436690904200077,-0.0020708260126411915,-0.05016733333468437,-0.0522175133228302,0.030110467225313187,-0.08099265396595001,0.09695121645927429,-0.9919882416725159,-0.05779194990556839,-0.02580643352450862,-0.2719454453232059,0.960228981313257
8.037479208338482,8.036610291666875,0.0058731636963784695,-0.022805102169513702,-0.00010179279342992231,-0.02387283183634281,-0.023691318929195404,0.02977524697780609,-0.08147316426038742,0.09785565733909607,-0.9918600916862488,-0.05828737892283918,-0.025933458455676624,-0.27163953867878277,0.9602822340334114
8.080555833337712,8.079686916666105,0.0024253390729427338,-0.03530808165669441,0.0020669051446020603,-0.0035002438817173243,-0.019621580839157104,0.0393940769135952,-0.08165090531110764,0.09829840809106827,-0.9918016791343689,-0.05851671849119865,-0.025979908673927247,-0.2712949114872432,0.9603644002355092
8.080855125001108,8.079986166667368,0.00701502338051796,-0.055520858615636826,0.006542856339365244,0.015452648513019085,-0.00035537610528990626,0.05234237760305405,-0.08172239363193512,0.09819744527339935,-0.9918057918548584,-0.058465196059816475,-0.02605621526906246,-0.2708334200381966,0.960495749243252
8.098553000003449,8.097683916668757,0.010777665302157402,-0.07561743259429932,0.012250309810042381,0.03145002946257591,0.000806173775345087,0.05781964957714081,-0.08139997720718384,0.09748522937297821,-0.9919025301933289,-0.05806071873846154,-0.026032160573957793,-0.27025752279776166,0.9606831920480334
8.133185000006051,8.132316166665987,0.010921086184680462,-0.09033341705799103,0.014508850872516632,0.028890173882246017,-0.0022542469669133425,0.059039339423179626,-0.08109859377145767,0.09649363160133362,-0.9920241832733154,-0.05752364544120335,-0.026056306440539214,-0.26966858199532046,0.9608803050309054
8.164742333334289,8.163873166668054,0.01046601589769125,-0.10123395919799805,0.026360943913459778,0.007549620233476162,-0.010547389276325703,0.06289511173963547,-0.08104848116636276,0.09564021974802017,-0.9921109080314636,-0.05708755113713618,-0.026182915533017964,-0.26907156410099975,0.9610701909140822
8.164859166667156,8.163990291664959,0.014099094085395336,-0.11471705883741379,0.038080375641584396,-0.016031287610530853,-0.013080842792987823,0.06370164453983307,-0.08103383332490921,0.09497907757759094,-0.9921756386756897,-0.05674849773203383,-0.02630184728770085,-0.268447222073186,0.9612615625879596
8.202132750004239,8.201263666669547,0.019557572901248932,-0.11516926437616348,0.07181064784526825,-0.038757599890232086,-0.010141788981854916,0.04578275978565216,-0.08097878843545914,0.09471424669027328,-0.9922054409980774,-0.0565984309855001,-0.026341833118835686,-0.2679217734566678,0.96141584375577
8.203132333335816,8.202263375002076,0.019261028617620468,-0.11636093258857727,0.07500702142715454,-0.06252913922071457,-0.03387074172496796,0.014926264062523842,-0.08137186616659164,0.09478174149990082,-0.9921668171882629,-0.05667713370376201,-0.026538266281359357,-0.26765527123362454,0.9614800405418162
8.231088041669864,8.230218999997305,0.01754743792116642,-0.10704480856657028,0.09212572127580643,-0.07880126684904099,-0.024905065074563026,-0.005442144349217415,-0.08186519145965576,0.0952826738357544,-0.9920783042907715,-0.05698656737018762,-0.026709383162069677,-0.26765386883110337,0.9614574608915968
8.270811791669985,8.26994299999933,0.009694795124232769,-0.10310825705528259,0.11319179087877274,-0.09616032242774963,-0.034388236701488495,-0.014947865158319473,-0.08258260041475296,0.0967608094215393,-0.9918757081031799,-0.05780531503280097,-0.026845459569973085,-0.26785545524981447,0.9613486413548563
8.270926000004692,8.270057208334038,0.0018427094910293818,-0.09917117655277252,0.13425509631633759,-0.11351937055587769,-0.043871406465768814,-0.02445358596742153,-0.08330047875642776,0.09823832660913467,-0.9916704297065735,-0.05862401660301931,-0.026981511357533003,-0.2680568669533126,0.9612390835673856
8.297239291670849,8.296370500000194,0.0029768471140414476,-0.09747359156608582,0.16244558990001678,-0.12514308094978333,-0.05858598276972771,-0.014421910047531128,-0.08437853306531906,0.10057457536458969,-0.9913450479507446,-0.05990784374657731,-0.02717572139692113,-0.26825763752005943,0.9610984502536033
8.29812104166922,8.297252208336431,0.009720824658870697,-0.10027691721916199,0.19855807721614838,-0.11487098783254623,-0.06079970672726631,0.00868233386427164,-0.08548672497272491,0.10297416895627975,-0.991003692150116,-0.06122100212918579,-0.02738857047511035,-0.2682519064838149,0.9610112788033256
8.33723595833726,8.336366833333159,0.01663338765501976,-0.10333314538002014,0.23139551281929016,-0.08470901101827621,-0.04282194375991821,0.030787268653512,-0.08644897490739822,0.10500570386648178,-0.9907069802284241,-0.06233199039697076,-0.027590132229407555,-0.2680968017933482,0.9609773890536445
8.337891833332833,8.337022874999093,0.018551059067249298,-0.12456465512514114,0.21313223242759705,-0.04695036634802818,-0.06231975555419922,0.03019632026553154,-0.08748094737529755,0.10640675574541092,-0.9904668927192688,-0.06314255166713313,-0.027920652877850376,-0.26778605745919865,0.9610015988639676
8.36831504166912,8.367446124997514,0.022868435829877853,-0.12783282995224,0.21221765875816345,-0.022618776187300682,0.014790063723921776,0.028161857277154922,-0.08796849846839905,0.10721061378717422,-0.9903370141983032,-0.06358985529150123,-0.02806801162576242,-0.26748721205642734,0.9610510149080207
8.43012775000534,8.42925858333183,0.02404790371656418,-0.1294790357351303,0.23061056435108185,-0.018282311037182808,-0.007652079686522484,0.0015942513709887862,-0.088068388402462,0.10779768228530884,-0.9902644157409668,-0.06388690890672442,-0.028040151374292107,-0.26744783085667695,0.9610430971151658
8.43026054166694,8.42939175000356,0.025227192789316177,-0.13112527132034302,0.2490031123161316,-0.01394584495574236,-0.030094224959611893,-0.02497335709631443,-0.08816825598478317,0.10838457942008972,-0.9901914596557617,-0.06418389462241648,-0.028012330200995243,-0.26740837952379387,0.9610350659869202
8.430507541670522,8.429638749999867,0.02640650048851967,-0.1327713131904602,0.2673952877521515,-0.009609379805624485,-0.05253636837005615,-0.05154096335172653,-0.08826804161071777,0.10897139459848404,-0.990118145942688,-0.06448085008614482,-0.027984501298982875,-0.26736890877810815,0.9610269528308152
8.439892083333689,8.439023166669358,0.021707944571971893,-0.10982903093099594,0.22804877161979675,-0.005562055855989456,-0.052128322422504425,-0.07009880244731903,-0.08953706920146942,0.10898812860250473,-0.9900023937225342,-0.0646786775994458,-0.02855658195983083,-0.2679453375808524,0.9608362658053968
8.472025250004663,8.471156083331152,0.010806030593812466,-0.07997699081897736,0.235193133354187,-0.014692068099975586,-0.03725525736808777,-0.06309062242507935,-0.09033247828483582,0.10896952450275421,-0.9899321794509888,-0.06479575738354465,-0.028903726165261406,-0.2685325673349908,0.9606540669392591
8.479236999999557,8.478368041665817,0.003775720950216055,-0.04443391412496567,0.23038014769554138,-0.0996347963809967,-0.06693000346422195,-0.05382031202316284,-0.0914878249168396,0.1100434884428978,-0.9897072315216064,-0.06549360433454014,-0.02927401127953043,-0.26916567743331543,0.9604183052980894
8.52162870833854,8.520759749997524,0.01507497951388359,-0.053380247205495834,0.20889687538146973,-0.14409567415714264,-0.0497729629278183,-0.013479186221957207,-0.09284025430679321,0.11259151250123978,-0.9892945885658264,-0.06692389769402761,-0.02956146886974921,-0.2694782157620111,0.9602232419649512
8.521844083334145,8.52097529166349,0.006520408205688,-0.03833780065178871,0.19913515448570251,-0.12517672777175903,-0.08010667562484741,-0.009557030163705349,-0.09411486238241196,0.11529421806335449,-0.9888628125190735,-0.06841251452828198,-0.029804780117042448,-0.2695759914630199,0.9600833356949307
8.60246470833954,8.601595874999475,0.014536892995238304,-0.032368604093790054,0.17734098434448242,-0.18110641837120056,-0.05743270739912987,-0.00199069082736969,-0.09604105353355408,0.11940054595470428,-0.9881900548934937,-0.07066772628911024,-0.03018329502281571,-0.2695281817162599,0.9599215794805397
8.607949166667822,8.607080250003492,0.022551611065864563,-0.026396701112389565,0.15552614629268646,-0.2370361089706421,-0.03475875034928322,0.0055756461806595325,-0.0979655459523201,0.12350426614284515,-0.987496554851532,-0.0729225941624438,-0.030561643628150607,-0.2694789535997618,0.9597547450569687
8.608148999999685,8.607280249998439,0.03056454099714756,-0.020422136411070824,0.1336904913187027,-0.2929657995700836,-0.012084794230759144,0.013141983188688755,-0.09988822042942047,0.12760521471500397,-0.9867822527885437,-0.07517706157708878,-0.030939789919571997,-0.2694283578338526,0.9595828637317463
8.608289291667461,8.607420583335625,0.035488780587911606,-0.03731249272823334,0.152845099568367,-0.24301479756832123,0.02342158742249012,-0.02583710104227066,-0.09990356117486954,0.13288827240467072,-0.9860831499099731,-0.07775010564288516,-0.030221522601491302,-0.26956062336361336,0.9593635917513282
8.63839104166982,8.637522208337032,0.00990584772080183,-0.01518950890749693,0.1676468551158905,-0.158916175365448,-0.013833818957209587,-0.06168882176280022,-0.09974360466003418,0.13672374188899994,-0.9855749011039734,-0.07960834311738323,-0.029581604969242423,-0.2700789031878679,0.9590853185467039
8.638545041671023,8.637676291669777,-0.013855965808033943,0.0021460724528878927,0.14309346675872803,-0.13174749910831451,-0.09907365590333939,-0.06268063932657242,-0.10115578025579453,0.13936014473438263,-0.985061526298523,-0.0811036664376111,-0.029856591246011074,-0.2706634796011298,0.9587866778845977
8.711887958335865,8.711019000002125,-0.016440577805042267,0.01565033383667469,0.12624609470367432,-0.08775027096271515,-0.08667043596506119,-0.013927781023085117,-0.103336863219738,0.14106115698814392,-0.9845929145812988,-0.08224071301034191,-0.030659342357410385,-0.27089270120251774,0.958599724988201
8.712355333336745,8.711486375003005,-0.01902495138347149,0.029156707227230072,0.10939119756221771,-0.04375304654240608,-0.07426722347736359,0.03482508659362793,-0.10551821440458298,0.14276006817817688,-0.9841166138648987,-0.0833776496913138,-0.03146214383833592,-0.2711213748688153,0.9584108228359877
8.712794125000073,8.711925208335742,-0.021609297022223473,0.042665302753448486,0.09252850711345673,0.0002441765391267836,-0.06186400726437569,0.0835779532790184,-0.10769949108362198,0.14445672929286957,-0.9836325645446777,-0.08451437417730702,-0.03226484936269404,-0.27134952001281665,0.9582200534558192
8.778544458335091,8.777675458331942,-0.011599652469158173,0.020692596212029457,0.07171595096588135,0.007749814540147781,-0.021789927035570145,0.0649884045124054,-0.10719559341669083,0.14384379982948303,-0.9837774634361267,-0.08411421008683247,-0.032188061184823966,-0.2704030502751678,0.9585253408430308
8.778791625001759,8.777922875000513,-0.0015888662310317159,-0.0012789724860340357,0.0509028360247612,0.015255452133715153,0.0182841494679451,0.04639885947108269,-0.10669274628162384,0.143229678273201,-0.9839217066764832,-0.08371389039184929,-0.03211119884787995,-0.2694561447025769,0.9588295186658193
8.779030875004537,8.778162083333882,0.008422969840466976,-0.023249424993991852,0.03008909896016121,0.022761089727282524,0.05835822597146034,0.02780931442975998,-0.10619105398654938,0.1426144689321518,-0.9840653538703918,-0.08331347755300024,-0.0320342746392643,-0.26850903748389565,0.9591326614339712
8.779426625005726,8.778557791665662,0.01966141164302826,-0.013008714653551579,0.022838128730654716,0.03193604573607445,0.07682445645332336,-0.0189211405813694,-0.10492122173309326,0.1421521008014679,-0.9842684268951416,-0.0829106516803871,-0.03148984398889953,-0.2684248391134383,0.9592091521550237
8.800929500001075,8.80006070833042,0.023514829576015472,0.03334560617804527,0.051686547696590424,0.07783740013837814,0.0723138153553009,-0.017124151811003685,-0.10337226837873459,0.1410941332578659,-0.9845845103263855,-0.08219047288409166,-0.030862198902134368,-0.2686741299681077,0.9592217478868098
8.818316625001899,8.81744762499875,0.029407942667603493,0.039459068328142166,0.012270762585103512,0.08636739104986191,0.01343525294214487,-0.013798022642731667,-0.10261507332324982,0.13919757306575775,-0.984933614730835,-0.08116794987366573,-0.030740244777046972,-0.2688162588750191,0.959272914526281
8.87046100000589,8.869591916663921,0.01525167003273964,0.050558555871248245,-0.019763289019465446,0.016861319541931152,0.018245754763484,-0.02227281779050827,-0.10219098627567291,0.1385962963104248,-0.9850624799728394,-0.08082450176510518,-0.030596750656893008,-0.2690502566005618,0.9592408377150585
8.870726250002917,8.869857291669177,0.0010953304590657353,0.06165766343474388,-0.05179788917303085,-0.0526447519659996,0.023056257516145706,-0.030747611075639725,-0.10176670551300049,0.13799527287483215,-0.985190749168396,-0.08048111314351877,-0.030453302011188732,-0.26928423491330666,0.9592086788759767
8.878671625003335,8.877802416667691,-0.011686121113598347,0.07360906153917313,-0.057851389050483704,-0.10399354249238968,0.015444023534655571,-0.010342682711780071,-0.10102642327547073,0.14033763110637665,-0.9849360585212708,-0.08152408236312828,-0.029762368331633465,-0.26947189511325803,0.959089512184304
8.913870541669894,8.913001624998287,-0.027756644412875175,0.07915816456079483,-0.04640142619609833,-0.11944258213043213,-0.011213527992367744,0.01989750564098358,-0.10028970241546631,0.14355336129665375,-0.9845477938652039,-0.08298322575233748,-0.028980523226184517,-0.269354772590195,0.9590212099869816
8.94744312500552,8.946574166664504,-0.036334775388240814,0.06080273166298866,-0.06918688863515854,-0.13033398985862732,-0.012246721424162388,0.020626217126846313,-0.10022831708192825,0.14652465283870697,-0.98411625623703,-0.08441555950637555,-0.028563608692496755,-0.2691786487124557,0.9589581655785964
8.96399479167303,8.963126000002376,-0.04280487075448036,0.03130483627319336,-0.07119837403297424,-0.08203134685754776,0.014372670091688633,0.005646504461765289,-0.099973164498806,0.14911086857318878,-0.9837536811828613,-0.08563585385836125,-0.028100756213849477,-0.26905594278833833,0.9588981145058962
8.970602083340054,8.96973324999999,-0.033063504844903946,0.029686961323022842,-0.08870328217744827,-0.01807139813899994,0.0211406908929348,-0.019325023517012596,-0.09969372302293777,0.15028251707553864,-0.9836037755012512,-0.086171744907918,-0.027794802539269168,-0.2691906154209396,0.9588213291977709
9.01574533333769,9.014876291665132,-0.01939748227596283,0.023377366364002228,-0.10325296223163605,0.014509232714772224,0.021630113944411278,0.022387146949768066,-0.0988328829407692,0.1498560756444931,-0.9837556481361389,-0.0858418810440828,-0.027446885291098327,-0.26907393067107077,0.9588935976357535
9.01606637500663,9.015197458335024,-0.005731089040637016,0.017068007960915565,-0.11780362576246262,0.04708986356854439,0.022119533270597458,0.06409931927919388,-0.09797212481498718,0.1494293361902237,-0.9839066863059998,-0.08551201177997093,-0.027098990976487068,-0.2689572070956,0.9589657020180177
9.018622041672643,9.017753041669494,0.0017090057954192162,-0.009498022496700287,-0.16387876868247986,0.03615825995802879,0.015222528949379921,0.10242072492837906,-0.09731856733560562,0.14881345629692078,-0.9840648770332336,-0.0851004261537134,-0.026934760627133226,-0.2681874891071219,0.959222489246167
9.047790875003557,9.04692195833195,1.0566525361355161e-06,-0.03112366795539856,-0.18620572984218597,0.01064279954880476,0.026234915480017662,0.10596789419651031,-0.09655284881591797,0.14854049682617188,-0.9841815233230591,-0.08483510246397508,-0.026687806669486655,-0.26721022493210056,0.959525579366511
9.08671029166726,9.085841208332567,0.0008425186388194561,-0.03996586799621582,-0.20643161237239838,-0.026980996131896973,0.005938746500760317,0.06852894276380539,-0.09614688158035278,0.14885380864143372,-0.9841739535331726,-0.08490880889375302,-0.026524055805667784,-0.26636538306181406,0.9597584802726575
9.086789708337164,9.085920958335919,-0.00041524466359987855,-0.013777765445411205,-0.21004924178123474,-0.06711234152317047,-0.007014395669102669,0.05952930077910423,-0.09595424681901932,0.1498752236366272,-0.9840376973152161,-0.08536380718029687,-0.026346997900977984,-0.2657678293222237,0.9598886371283497
9.10153949999949,9.100670458334207,0.007124489638954401,0.010917792096734047,-0.2479345202445984,-0.15140166878700256,-0.007305036298930645,0.04586765915155411,-0.0960589051246643,0.15210233628749847,-0.9836857318878174,-0.08644987993976301,-0.026144998884816514,-0.2652626309546296,0.9599366914042807
9.170711750004557,9.169842666669865,0.007149496115744114,0.0377141572535038,-0.21393154561519623,-0.23649944365024567,0.02978845313191414,0.05844618007540703,-0.09474433958530426,0.1571597307920456,-0.9830179810523987,-0.08872593275807644,-0.02487406545694866,-0.26481440468435313,0.9598865462492484
9.17147516667319,9.170606333333126,0.007169421762228012,0.06451550126075745,-0.17995552718639374,-0.32159721851348877,0.0668819472193718,0.07102469354867935,-0.0934247225522995,0.1622122973203659,-0.9823232889175415,-0.09100144350642488,-0.023602974733501373,-0.26436440309583664,0.9598296316075229
9.17173637500673,9.170867499997257,-0.011727400124073029,0.06025036796927452,-0.1384785771369934,-0.32995614409446716,0.024086231365799904,0.056166231632232666,-0.09223104268312454,0.16874158382415771,-0.9813356995582581,-0.09401622081115708,-0.022206006588598733,-0.26382660217054943,0.9597203433048223
9.19081608333363,9.189946916667395,-0.028940148651599884,0.08284705877304077,-0.1584354192018509,-0.3417046368122101,-0.06543298065662384,-0.026981815695762634,-0.09286762028932571,0.17526370286941528,-0.9801317453384399,-0.09729091198840885,-0.021647167951203503,-0.26379875452158796,0.959414357989212
9.199242541668355,9.198373541665205,-0.03129301965236664,0.12736211717128754,-0.21268606185913086,-0.3727947473526001,-0.09064831584692001,-0.0681447684764862,-0.09486350417137146,0.1821918934583664,-0.9786761403083801,-0.10096490264314957,-0.021633352233301477,-0.26432722508697726,0.9588894420239662
9.235585708338476,9.234716874998412,-0.021584980189800262,0.166522815823555,-0.21415777504444122,-0.3998033404350281,0.018733341246843338,-0.007814000360667706,-0.09587299078702927,0.1897222101688385,-0.977145791053772,-0.10480292158662344,-0.021058402303381525,-0.26483198422635185,0.95835108078882
9.238063208336825,9.237194374996761,-0.01442998182028532,0.1465226113796234,-0.16889262199401855,-0.35723885893821716,0.04881978780031204,0.029409019276499748,-0.09515734016895294,0.19724969565868378,-0.9757241606712341,-0.10839532687308143,-0.019706994477239646,-0.2647661747827377,0.9579983382583932
9.27182050000556,9.270951416663593,-0.025671085342764854,0.1378532350063324,-0.17453883588314056,-0.3101561665534973,-0.02874615415930748,-3.807626126217656e-05,-0.09501224756240845,0.20379525423049927,-0.9743921756744385,-0.11158735995254977,-0.01876570050735888,-0.26467777869787407,0.9576751519610274
9.303992083339836,9.303123166668229,-0.05181882902979851,0.15085184574127197,-0.18076284229755402,-0.24575045704841614,-0.028295477852225304,0.005584859289228916,-0.09563422948122025,0.20925039052963257,-0.9731743931770325,-0.11435408726668211,-0.018328873196322253,-0.2647040079329705,0.9573498720728388
9.304196625002078,9.303327708330471,-0.06558217108249664,0.1443166881799698,-0.1755019873380661,-0.15411712229251862,-0.08128882199525833,0.0583987683057785,-0.09659144282341003,0.21318446099758148,-0.972225546836853,-0.1164139088116673,-0.01830377434345253,-0.26436209020228896,0.9571966078754538
9.34116404166707,9.340294916670246,-0.05490526556968689,0.10508669912815094,-0.17760300636291504,-0.07868820428848267,0.0035781334154307842,0.0881878137588501,-0.09716431796550751,0.2156403511762619,-0.9716266393661499,-0.11768666829114485,-0.018344421328929973,-0.26359790694711116,0.957250948749406
9.349706958339084,9.348837874997116,-0.0436951145529747,0.06134899705648422,-0.12507495284080505,-0.016553450375795364,0.07324104011058807,0.09130048751831055,-0.0960409939289093,0.2167399525642395,-0.971493661403656,-0.1180589082932458,-0.01775552360337817,-0.26275458975359267,0.9574480170920375
9.381230291670363,9.380361291667214,-0.0629420056939125,0.022875048220157623,-0.041725702583789825,0.05658949911594391,0.01867138221859932,0.1171179935336113,-0.0942140445113182,0.21663722395896912,-0.9716954231262207,-0.11774096308657249,-0.0170099052735853,-0.26172051255691675,0.9577839126997586
9.38127454167261,9.380405833333498,-0.06172531098127365,0.0032700274605304003,-0.13089917600154877,0.04383325204253197,-0.05194244533777237,0.037989117205142975,-0.09518148750066757,0.21546143293380737,-0.9718625545501709,-0.1172792145386274,-0.01772826660293669,-0.2609713302827496,0.958031941898516
9.411691375004011,9.41082229166932,-0.06711629033088684,0.03705371916294098,-0.11238609999418259,0.002494978718459606,-0.0017026744317263365,0.028622524812817574,-0.09566667675971985,0.21493496000766754,-0.971931517124176,-0.11707977288949312,-0.018071135033085113,-0.26066677641277136,0.9581328197795227
9.421504125006322,9.420635000002221,-0.05574199929833412,0.046734731644392014,-0.06216206029057503,-0.008347034454345703,0.045720312744379044,0.05976815149188042,-0.0948973223567009,0.21517610549926758,-0.9719535708427429,-0.11708710616482951,-0.017714863360457283,-0.2602629573875453,0.9582483544325494
9.469434416670993,9.468565625000338,-0.023799363523721695,0.04495243728160858,-0.06012279912829399,-0.019315414130687714,0.08654449135065079,0.06302210688591003,-0.09317627549171448,0.21561989188194275,-0.972021758556366,-0.11706387154639816,-0.016887179196239718,-0.2597148754555436,0.9584147918931317
9.469479333332856,9.46861062500102,-0.018498139455914497,0.04551481828093529,-0.09005782008171082,-0.058665838092565536,0.1468774825334549,0.07746411114931107,-0.09101520478725433,0.21644198894500732,-0.9720437526702881,-0.11717036357652925,-0.01578641969367448,-0.2592427754596809,0.9585483483966863
9.502022500004387,9.50115358333278,-0.025941289961338043,0.0351174920797348,-0.026105152443051338,-0.06061575189232826,0.1126914769411087,0.07881781458854675,-0.08814690262079239,0.21771998703479767,-0.9720227122306824,-0.11740560947512545,-0.014302569494398846,-0.25860234666834514,0.9587158514866303
9.502203166666732,9.501334333333944,0.002657131990417838,0.029101170599460602,0.011483432725071907,-0.04167098551988602,0.03324016556143761,-0.002565232804045081,-0.08647242188453674,0.2187451869249344,-0.9719429016113281,-0.11768201355891261,-0.01339662315867548,-0.25825261600863086,0.9587892639701999
9.521823750001204,9.520954833336873,0.026144005358219147,0.028654444962739944,-0.029326459392905235,-0.03117748349905014,0.032733965665102005,-0.0785726010799408,-0.08616717159748077,0.21946093440055847,-0.971808671951294,-0.11800090735706907,-0.013093388662360811,-0.25874372773943105,0.9586218432918631
9.554382041671488,9.553513124999881,0.04312814027070999,0.01759650744497776,-0.07987013459205627,0.005634724162518978,0.0647609755396843,-0.11062458902597427,-0.08553601056337357,0.21959590911865234,-0.9718339443206787,-0.1179956015412937,-0.012651250067500813,-0.25969987152047425,0.9583698778352718
9.583832625001378,9.582963583336095,0.03126375004649162,0.03384442627429962,-0.09703008830547333,0.02084168791770935,0.08750075101852417,-0.09582770615816116,-0.08432817459106445,0.21916791796684265,-0.9720361232757568,-0.11763665195756891,-0.011981593582879809,-0.2608403263454383,0.9581128832762577
9.58389629166777,9.583027541666524,0.005053022876381874,0.0522439070045948,-0.08568918704986572,0.013934100046753883,0.03307744860649109,-0.057050056755542755,-0.0836603045463562,0.21861211955547333,-0.972218930721283,-0.117283175301623,-0.011626298275424603,-0.26170022906502605,0.9579260525317793
9.617417333334743,9.616548583333497,-0.02876984514296055,0.039881739765405655,-0.04440882056951523,0.02491076849400997,-0.03874657303094864,-0.021376384422183037,-0.08365441113710403,0.2181837409734726,-0.9723156690597534,-0.11707523928130131,-0.011641912779627221,-0.26201823253794476,0.95786443646386
9.632239250000566,9.631370249997417,-0.031886063516139984,0.019744984805583954,-0.06735231727361679,0.03356253355741501,-0.055262695997953415,-0.06408379226922989,-0.08446136862039566,0.21755953133106232,-0.972385823726654,-0.11688082976825241,-0.01208163838566569,-0.26230877285349796,0.9578031696729914
9.664923333337356,9.664054125001712,-0.013621417805552483,0.01872835122048855,-0.11568067222833633,0.029876884073019028,0.0016386978095397353,-0.09509306401014328,-0.08529331535100937,0.21672719717025757,-0.9724990129470825,-0.11659397956033474,-0.012502737127273253,-0.2630821465425267,0.957620575312744
9.66526737499953,9.66439841666579,-0.0035271260421723127,0.030787790194153786,-0.09472105652093887,0.03479614853858948,0.05831238254904747,-0.06799493730068207,-0.08478260785341263,0.21598657965660095,-0.9727084636688232,-0.11617110299468206,-0.012249391878978753,-0.26394950762090735,0.9574365271204445
9.69279979167186,9.691930708329892,-0.017206616699695587,0.04331338033080101,-0.04344506934285164,0.046235471963882446,0.005754554178565741,-0.018458209931850433,-0.08410071581602097,0.21517841517925262,-0.9729467034339905,-0.11568636001156067,-0.011970668603861518,-0.264422112240379,0.9573684241638981
9.722830166669155,9.721961249997548,-0.03577335178852081,0.02959449030458927,-0.03754836693406105,0.07099104672670364,-0.12704980373382568,0.003945448435842991,-0.08527501672506332,0.21410278975963593,-0.9730817675590515,-0.11531629553488415,-0.012698329037324646,-0.2643140434746306,0.9574335427931591
9.725542375002988,9.724673374999838,-0.04490448161959648,0.014570800587534904,-0.07445263862609863,0.08307218551635742,-0.1475551724433899,-0.0005934361252002418,-0.08798731863498688,0.21264414489269257,-0.9731601476669312,-0.11496633850145628,-0.014235632985929097,-0.26410235705849466,0.9575123125861948
9.769049416667258,9.768180624996603,-0.04553601145744324,0.016720619052648544,-0.10594555735588074,0.07445547729730606,-0.11458111554384232,-0.009671158157289028,-0.09053966403007507,0.21107926964759827,-0.9732667207717896,-0.11454335788726322,-0.015698710628236613,-0.2639801537142821,0.9575738898365308
9.769092500006082,9.76822374999756,-0.036593470722436905,0.031205562874674797,-0.12875163555145264,0.02027280628681183,-0.04674830660223961,0.0004205577715765685,-0.09225711226463318,0.21008482575416565,-0.9733206033706665,-0.1142884987693051,-0.016668265702002645,-0.2639559507818126,0.9575946033144973
