timestamp,t_global,t_local,accX,accY,accZ,gyroX,gyroY,gyroZ,magX,magY,magZ,accuracy
0.015125125006306916,0.01512600000569364,0.014979749998019543,0.000294635072350502,-0.0031064748764038086,-2.6404857635498047e-05,-0.0005057277157902718,0.0016865478828549385,0.0006465143524110317,-26.899154663085938,39.35114288330078,9.619659423828125,2
0.023701666672423016,0.023701916667050682,0.02355566666665254,-0.0002691652625799179,-0.0014277100563049316,-0.0002593402750790119,-0.001564451027661562,-0.0019395858980715275,0.001970586832612753,-26.700958251953125,39.30598449707031,9.715011596679688,2
0.03376974999991944,0.03376987500087125,0.03362362500047311,-0.0004421733319759369,-0.0013970732688903809,0.0003451700322329998,0.001886739395558834,-0.0013672723434865475,-8.004717528820038e-05,-26.7127685546875,39.35845184326172,9.932952880859375,2
0.04378812500362983,0.04378845833707601,0.043642124997859355,0.0002433285117149353,-0.00148850679397583,-0.0001875758171081543,0.0013773355167359114,0.00028779124841094017,-0.0013466663658618927,-26.57154083251953,39.24577713012695,9.620895385742188,2
0.054118416672281455,0.054119208332849666,0.053972958332451526,-0.0004787612706422806,-0.002373218536376953,0.0006815195083618164,0.0024623072240501642,-0.00045283371582627296,0.0008666869252920151,-26.504684448242188,39.19596862792969,9.354934692382812,2
0.06412625000666594,0.06412704166723415,0.0639807083280175,0.000960400328040123,-0.001549065113067627,0.0005917549133300781,0.0010020029731094837,0.00041295215487480164,-0.0019059199839830399,-26.67877197265625,39.24507522583008,9.525932312011719,2
0.07398174999980256,0.07398237500456162,0.07383608333475422,-0.00011129304766654968,-0.0019611716270446777,-0.0008916854858398438,-0.0029964670538902283,0.0017447988502681255,0.00042061787098646164,-26.5716552734375,39.169734954833984,9.724578857421875,2
0.08409104166639736,0.08409170833328972,0.08394545833289158,-0.00025277212262153625,-0.0020986199378967285,-0.0005868077278137207,0.0013045992236584425,-0.0017919898964464664,-0.0011303350329399109,-26.50951385498047,39.17322540283203,9.36407470703125,2
0.09414074999949662,0.09414125000330387,0.09399499999562977,-0.00022779405117034912,-0.0023886561393737793,-0.00012767314910888672,-0.002154847141355276,-0.0017065024003386497,-0.0010496415197849274,-26.459861755371094,39.2030029296875,9.187911987304688,2
0.10411387500062119,0.10411416667193407,0.10396787499485072,-0.000969812273979187,-0.0016565322875976562,0.0002728700637817383,-0.0013200710527598858,-0.0001819985918700695,0.0018704673275351524,-26.51128387451172,39.08707046508789,8.992027282714844,2
0.11442733333387878,0.11442812500172295,0.114281750000373,-0.00011860020458698273,-0.0019919872283935547,-0.0002722744829952717,0.0012107307557016611,0.0006419834680855274,0.0012241178192198277,-26.503089904785156,39.180294036865234,9.573432922363281,2
0.12434466667036759,0.12434529166785069,0.12419904166745255,-6.215646862983704e-05,-0.002205193042755127,0.00010639429092407227,0.0006886119954288006,-0.0013741543516516685,-0.0026664389297366142,-26.450881958007812,39.2480583190918,9.846206665039062,2
0.13453570833371487,0.1345365833331016,0.1343902916632942,-0.00013679265975952148,-0.0027090907096862793,-0.0006409883499145508,0.00019006850197911263,-0.00017786258831620216,-0.0034432830289006233,-26.727691650390625,39.14104461669922,9.433395385742188,2
0.1445492083366844,0.1445498333341675,0.14440358333376935,-1.6458332538604736e-05,-0.0017173290252685547,-0.0006474852561950684,-0.0002863714471459389,-0.002478010253980756,-0.0001932792365550995,-26.679031372070312,39.048641204833984,9.273719787597656,2
0.15481916667340556,0.15482025000528665,0.15467391666607,0.0006509833037853241,-0.0015035271644592285,-0.0009184479713439941,-0.0006176689639687538,8.794525638222694e-05,0.0008943555876612663,-26.51110076904297,38.76091384887695,9.674400329589844,2
0.1648102083345293,0.16481150000618072,0.16466508332814556,-0.00011419877409934998,-0.0018695592880249023,0.001011014450341463,-0.002109668217599392,-0.0013465778902173042,0.0012782979756593704,-26.72967529296875,38.902278900146484,9.34759521484375,2
0.17494487500516698,0.17494554167205933,0.17479916666343343,0.0001319628208875656,-0.002475559711456299,-0.0002734065055847168,-5.663745105266571e-05,-0.0007305885665118694,-0.0015686210244894028,-26.711044311523438,39.3458137512207,9.152114868164062,2
0.18505070833634818,0.18505191666918108,0.18490558332996443,0.0008847396820783615,-0.002680838108062744,-0.0005315546877682209,-0.0006017056293785572,0.0007170219905674458,0.0035529681481420994,-26.655075073242188,39.084388732910156,9.236091613769531,2
0.1949408750006114,0.1949417916694074,0.1947955416617333,6.995908915996552e-05,-0.0011277198791503906,-0.0006316900253295898,0.0023938179947435856,-0.0014965971931815147,0.0007595783099532127,-26.47583770751953,39.16699981689453,9.458969116210938,2
0.20532366666884627,0.20532458333764225,0.20517820832901634,0.0004255007952451706,-0.001693427562713623,-0.00023871660232543945,0.002047959016636014,-0.00013325409963726997,0.00017439480870962143,-26.419387817382812,39.311614990234375,9.260551452636719,2
0.2151271250040736,0.2151277500015567,0.21498150000115857,0.0005110893398523331,-0.0022444725036621094,-0.00033789873123168945,0.002008277690038085,0.0013117771595716476,-0.0028341785073280334,-26.33875274658203,39.23344039916992,9.231063842773438,2
0.2251808750006603,0.22518195833981736,0.225035666662734,1.8473714590072632e-05,-0.0020784735679626465,-0.0011484627611935139,-0.0024703070521354675,-0.003264382015913725,-0.0003276979550719261,-26.444076538085938,38.99159240722656,9.471946716308594,2
0.23549425000237534,0.2354949166692677,0.2353486666615936,0.00014883093535900116,-0.0015476346015930176,0.00035899924114346504,0.0010402717161923647,-0.001131722703576088,-0.0003237025812268257,-26.589004516601562,39.067813873291016,9.299896240234375,2
0.24552512500667945,0.24552604166819947,0.24537974999839207,-0.0001360420137643814,-0.0022488832473754883,0.0006135101430118084,-0.00203115725889802,-0.00015996024012565613,-0.0009996742010116577,-26.56036376953125,39.11424255371094,9.223541259765625,2
0.2555410416680388,0.2555416666727979,0.2553953749957145,0.0008662398904561996,-0.0014706254005432129,-7.027434185147285e-05,-0.0012332741171121597,0.0004230057820677757,0.0008014212362468243,-26.511688232421875,39.109336853027344,9.31585693359375,2
0.2658933750062715,0.2658943333372008,0.26574799999798415,0.0001714024692773819,-0.0017157196998596191,-0.0005338788032531738,-0.001277274452149868,0.0024898340925574303,-0.001477147452533245,-26.704368591308594,39.03306579589844,9.522148132324219,2
0.27583925000362797,0.2758400000020629,0.2756936250007129,0.0008155424147844315,-0.0024785399436950684,-0.0001557469367980957,-0.0037556118331849575,-0.0007560267113149166,-0.0020739613100886345,-26.465126037597656,38.909427642822266,9.700637817382812,2
0.2858021250067395,0.2858033750017057,0.28565704166248906,0.00015214085578918457,-0.0019297599792480469,0.0009572505950927734,-0.0015765037387609482,-0.000848142895847559,0.0011903690174221992,-26.515213012695312,38.90315246582031,9.62225341796875,2
0.29616641667234944,0.2961680000007618,0.29602162499941187,-0.0005026552826166153,-0.001990973949432373,0.00014674663543701172,0.0008930456824600697,-0.0004260316491127014,0.0010106060653924942,-26.481155395507812,39.16304397583008,9.628204345703125,2
0.30600541667081416,0.30600633333961014,0.3058599583309842,-0.0003891605883836746,-0.0023723840713500977,-0.00047337962314486504,0.0014244650956243277,-0.0008090822957456112,0.000289134681224823,-26.37115478515625,39.21615219116211,9.353286743164062,2
0.31608025000605267,0.3160815416704281,0.3159351666618022,0.00015568174421787262,-0.0014873147010803223,0.0006012325175106525,-0.0018405704759061337,-0.0008908412419259548,-0.0006783921271562576,-26.473045349121094,38.982666015625,9.5618896484375,2
0.3260613333332003,0.3260621250010445,0.3259157916618278,0.0001963004469871521,-0.001731276512145996,-0.00039583398029208183,0.00037191715091466904,-4.363153129816055e-05,-0.0018196888267993927,-26.449371337890625,38.695308685302734,9.261459350585938,2
0.33627050000359304,0.3362716666670167,0.33612529166566674,0.00043649598956108093,-0.0012287497520446777,0.00023740576580166817,-0.0005402155220508575,-0.0007163458503782749,0.00045944424346089363,-26.50798797607422,39.01240539550781,9.208045959472656,2
0.3463280416690395,0.34632916667032987,0.34618279166170396,0.0006728339940309525,-0.0016868114471435547,0.0007384424097836018,-0.0005631642416119576,-0.00017355522140860558,-0.000486752949655056,-26.654769897460938,39.203887939453125,9.313323974609375,2
0.35621425000135787,0.3562152500016964,0.356068958331889,0.00023366697132587433,-0.0020082592964172363,-0.00024831248447299004,-0.0011024544946849346,0.001282661221921444,-0.0020063528791069984,-26.593978881835938,38.91639709472656,9.292121887207031,2
0.3662853750065551,0.36628666667093057,0.3661404166632565,8.404068648815155e-05,-0.0015203356742858887,0.0006284117698669434,-0.0014964109286665916,-0.0005093053914606571,-0.0015975190326571465,-26.60413360595703,39.081668853759766,9.374267578125,2
0.3765694166722824,0.3765698750066804,0.3764236249990063,-0.0009927824139595032,-0.001214444637298584,0.00026470376178622246,-0.0022727223113179207,0.0014036432839930058,0.0003282129764556885,-26.687889099121094,39.036521911621094,9.471138000488281,2
0.3865690833335975,0.3865698750014417,0.3864235833316343,-0.00034805573523044586,-0.0018241405487060547,-0.0005341172218322754,0.001178446225821972,-0.001496126875281334,0.0019746357575058937,-26.501602172851562,39.13585662841797,9.319160461425781,2
0.3966346250017523,0.3966352083371021,0.3964889166672947,0.0004394315183162689,-0.0013660788536071777,-0.0001691579818725586,0.0010042756330221891,-0.0011216867715120316,0.00044784555211663246,-26.584312438964844,38.9497184753418,9.413619995117188,2
0.40670450000470737,0.4067055416671792,0.40655920832796255,-0.0008939765393733978,-0.0014275908470153809,0.0012324457056820393,0.0012709759175777435,0.001675137784332037,-0.003068464808166027,-26.457618713378906,39.17692184448242,9.517494201660156,2
0.41664095833402826,0.4166419166722335,0.41649558333301684,-0.00030544213950634,-0.001626729965209961,0.00010997103527188301,-0.00013597216457128525,0.00027058692649006844,-0.0001291343942284584,-26.469131469726562,39.322418212890625,9.373390197753906,2
0.4270730000062031,0.42707454167248216,0.42692816666385625,0.0005725380033254623,-0.0020999908447265625,0.00018274830654263496,0.00036771385930478573,-0.0005225962959229946,9.566545486450195e-05,-26.448394775390625,38.965579986572266,9.598251342773438,2
0.43695133333676495,0.43695191667211475,0.4368056249950314,-0.00026828236877918243,-0.0018711686134338379,9.822845458984375e-05,0.0024433815851807594,0.0017517432570457458,-0.00025081168860197067,-26.56952667236328,39.024234771728516,9.603843688964844,2
0.44696062500588596,0.44696125000336906,0.4468149166641524,0.0003790520131587982,-0.0014744997024536133,-0.00016897963359951973,-0.004458752926439047,-0.0002597901038825512,0.00022348063066601753,-26.63481903076172,38.9669075012207,9.39459228515625,2
0.45715675000246847,0.45715829166874755,0.4570119166673976,-0.0003579985350370407,-0.00270998477935791,-0.0007418994791805744,-0.00064084492623806,0.0006952197290956974,-0.0007424475625157356,-26.774765014648438,39.106449127197266,9.079261779785156,2
0.4671778333358816,0.46717895833717193,0.467032583328546,-0.0008409544825553894,-0.0012295246124267578,0.00048595666885375977,0.0006432454101741314,5.927542224526405e-05,0.004287386778742075,-26.678070068359375,38.934165954589844,9.195274353027344,2
0.47727891666727373,0.47727987500547897,0.4771335833283956,-0.0008387081325054169,-0.0015194416046142578,4.369020462036133e-05,-0.001643344759941101,-0.0013428786769509315,0.0017166370525956154,-26.886672973632812,39.09787368774414,9.266464233398438,2
0.48718450000160374,0.48718508333695354,0.48703883332927944,0.00010049156844615936,-0.002052485942840576,-0.00016093207523226738,-0.00013122661039233208,-0.0011740955524146557,0.0016380241140723228,-26.570755004882812,38.83842468261719,9.218315124511719,2
0.49728441666957224,0.49728500000492204,0.49713874999724794,0.00045138783752918243,-0.002586543560028076,0.00035142991691827774,0.0011446941643953323,-0.0003660921938717365,-0.0015340670943260193,-26.617584228515625,38.89494323730469,8.983695983886719,2
0.5073020416675718,0.507302541671379,0.5071562916637049,-0.00012830831110477448,-0.00136643648147583,-0.00024121999740600586,0.0003631936851888895,-0.001209439244121313,-0.003126186318695545,-26.734375,39.13825607299805,8.960540771484375,2
0.5175595000036992,0.517559916668688,0.5174136249988806,0.00014026276767253876,-0.0014731287956237793,0.000975191593170166,-0.002571343444287777,-0.002424107166007161,0.00046748295426368713,-26.58464813232422,39.05043411254883,9.076446533203125,2
0.5275575000050594,0.5275577916690963,0.5274115416614222,0.0007058847695589066,-0.0020377039909362793,0.000600696075707674,0.001067079370841384,0.0004898952320218086,0.002153715118765831,-26.571617126464844,39.169071197509766,9.102249145507812,2
0.5377066666696919,0.5377070833346806,0.5375607916648732,-0.00022693723440170288,-0.002129077911376953,0.00020253704860806465,0.0015126261860132217,0.00015833135694265366,-7.706694304943085e-06,-26.516822814941406,39.08747863769531,8.902969360351562,2
0.5478308750025462,0.5478318333334755,0.5476855000015348,0.00025862082839012146,-0.0018993616104125977,0.0003191237337887287,0.0055528548546135426,-0.0004585925489664078,0.0015458525158464909,-26.42169189453125,39.14447784423828,8.955062866210938,2
0.557965708336269,0.5579668333375594,0.557820541667752,0.00014360062777996063,-0.00133436918258667,0.0009767417795956135,-0.0011172983795404434,-0.0005483413115143776,0.0024167061783373356,-26.52330780029297,39.00033187866211,8.8580322265625,2
0.5681075833344948,0.5681084166717483,0.5679620833325316,0.0003851335495710373,-0.0014714598655700684,0.0001437668688595295,0.0015824628062546253,-0.0009806696325540543,0.002623880747705698,-26.521629333496094,38.917030334472656,9.242515563964844,2
0.5781182083374006,0.5781189583358355,0.5779726249966188,-0.0001661498099565506,-0.001120448112487793,0.00042140576988458633,-0.0022231945767998695,-0.0007756063714623451,-0.001271524466574192,-26.72515106201172,39.17701721191406,9.245445251464844,2
0.5881999166667811,0.5882010000059381,0.5880546249973122,0.0006163623183965683,-0.0018073320388793945,0.0007150173187255859,0.0021554725244641304,-0.002282152185216546,-0.002675754949450493,-26.490394592285156,39.14905548095703,9.3114013671875,2
0.5989282916707452,0.5989295000035781,0.5987831249949522,0.0005064550787210464,-0.0019602179527282715,-0.0002409815788269043,-0.001797457691282034,-0.0008765356615185738,0.0009967437945306301,-26.819671630859375,39.17410659790039,9.3341064453125,2
0.6083295833377633,0.6083308333400055,0.6081844583313796,0.00038859806954860687,-0.002402961254119873,0.00029337452724575996,0.0029352442361414433,-0.001292116940021515,0.0005174600519239902,-26.62646484375,38.87422180175781,9.37261962890625,2
0.6180989166678046,0.6180999999996857,0.6179537083298783,5.049258470535278e-05,-0.0019448399543762207,0.00024056481197476387,-3.098463639616966e-05,-0.002613044809550047,0.0020921872928738594,-26.469032287597656,39.03851318359375,9.076034545898438,2
0.628335416666232,0.6283365000053891,0.628190249997715,0.0009438507258892059,-0.00176161527633667,-0.0005256533622741699,-7.902365177869797e-05,-0.0003862348385155201,-0.0007258253172039986,-26.323997497558594,39.06210708618164,9.175521850585938,2
0.6383071250020294,0.6383074166733422,0.6381611249962589,0.0005064047873020172,-0.0016698241233825684,0.00020444439724087715,0.0034198372159153223,0.0003914083354175091,-0.00032129138708114624,-26.44731903076172,39.203636169433594,9.207420349121094,2
0.648463500001526,0.6484643333387794,0.648318041661696,-0.0003327317535877228,-0.002326071262359619,-0.00023931264877319336,0.0023526297882199287,-0.00234164297580719,-2.4952925741672516e-05,-26.406280517578125,39.03396987915039,9.142059326171875,2
0.6588337916691671,0.6588384999995469,0.6586921666676062,-0.00035328418016433716,-0.0022491812705993652,0.00017601298168301582,0.0005185108166188002,0.0006671962328255177,0.003098402637988329,-26.5084228515625,38.97507095336914,9.210647583007812,2
0.6687147083357559,0.6687155416730093,0.6685692083337926,-0.00011319294571876526,-0.0018979310989379883,0.0008202791213989258,-0.0033029699698090553,0.00018168054521083832,0.001071025151759386,-26.637535095214844,39.030635833740234,9.576736450195312,2
0.6787286250037141,0.678729666666186,0.6785833333342453,0.0005633663386106491,-0.0011810064315795898,0.0003739595413208008,0.0013495723251253366,-0.001294775865972042,-0.0010704230517148972,-26.582740783691406,38.94855499267578,9.583358764648438,2
0.6890295000048354,0.6890304583357647,0.6888840833344148,-0.00017729029059410095,-0.001776576042175293,-7.903575897216797e-05,-0.00012479815632104874,0.0009170845150947571,-0.0020133601501584053,-26.411155700683594,39.14485549926758,9.184616088867188,2
0.6989935000019614,0.6989945000022999,0.69884812500095,0.00017501600086688995,-0.001074671745300293,-4.500150680541992e-05,-0.0005732742138206959,0.0003519617021083832,0.0007312935777008533,-26.55817413330078,39.20797348022461,8.88916015625,2
0.7089051250004559,0.7089055416727206,0.7087592499956372,0.00019598379731178284,-0.0015177726745605469,0.00019341753795742989,0.000973184360191226,0.0016054706647992134,0.0021118116565048695,-26.499855041503906,39.292701721191406,9.045829772949219,2
0.7190602500049863,0.7190608333330601,0.7189145000011194,-0.0002497304230928421,-0.0017772316932678223,0.0011308197863399982,0.00010179821401834488,0.00015271641314029694,-0.0018770713359117508,-26.344955444335938,38.81592559814453,9.099037170410156,2
0.7293031666704337,0.7293035000038799,0.7291571666646632,-0.0003717821091413498,-0.0017924308776855469,-0.000586329959332943,-0.00013556377962231636,-0.0010389233939349651,-0.0010650819167494774,-26.633270263671875,39.122371673583984,8.998504638671875,2
0.7392854999998235,0.7392861250045826,0.7391397916653659,7.241778075695038e-05,-0.0017467141151428223,3.1233299523591995e-05,-0.0011691367253661156,0.0010426030494272709,-3.284122794866562e-05,-26.6326904296875,39.27200698852539,9.440788269042969,2
0.7492288333378383,0.7492297916687676,0.7490834999989602,0.0005417037755250931,-0.00113600492477417,-0.000825702678412199,0.0009635828901082277,3.077322617173195e-05,0.0006891833618283272,-26.83295440673828,39.007450103759766,9.314506530761719,2
0.759276625001803,0.7592773333381047,0.7591310833304306,-0.00018068403005599976,-0.0013189315795898438,-0.0005477070808410645,-0.001981074456125498,-0.00022808602079749107,0.00013258308172225952,-26.7098388671875,39.19105911254883,8.802520751953125,2
0.7694123333349125,0.7694126250062254,0.7692663749985513,0.0001688040792942047,-0.002158224582672119,0.00048351287841796875,-0.00024764472618699074,-0.0002827434800565243,-0.0017531868070363998,-26.77063751220703,39.15702438354492,9.133209228515625,2
0.7796105416709906,0.7796112500000163,0.7794649999996182,0.0002811625599861145,-0.0021892786026000977,-0.0002474184148013592,-0.0006143618375062943,0.0005098129622638226,-0.0012658284977078438,-26.732559204101562,39.191986083984375,9.253822326660156,2
0.789636708337639,0.7896374583360739,0.7894911666662665,-7.731281220912933e-05,-0.0016709566116333008,0.0010244245640933514,0.00029528094455599785,-0.0013250340707600117,-0.0023870980367064476,-26.763015747070312,39.15167999267578,8.920005798339844,2
0.7999431666685268,0.7999441250067321,0.7997977916675154,0.00031084567308425903,-0.0015181899070739746,-0.00011956645175814629,-0.000991025473922491,0.0006433082744479179,0.001169553492218256,-26.55315399169922,39.23098373413086,9.147361755371094,2
0.8098260833357926,0.8098269583351794,0.8096805833338294,6.377696990966797e-05,-0.0017621517181396484,-8.64863395690918e-05,0.0008846544660627842,-0.0004619802348315716,0.00023563392460346222,-26.636375427246094,39.19511032104492,9.072952270507812,2
0.8199439583331696,0.8199454583373154,0.8197990833286894,-0.0005109254270792007,-0.0016247034072875977,-0.00011217547580599785,0.0012742751277983189,0.00011539319530129433,0.00024309009313583374,-26.765655517578125,39.10575866699219,9.211128234863281,2
0.8298899583387538,0.8298906666677794,0.829744374997972,-0.00015976466238498688,-0.0012433528900146484,-0.0003472566604614258,-0.0005558808334171772,-4.016794264316559e-05,0.0006546149961650372,-26.64788055419922,38.958290100097656,9.239555358886719,2
0.8399984166680952,0.8399991250043968,0.8398527916651801,-0.0006694681942462921,-0.0010445713996887207,-0.00029671192169189453,-0.002470160834491253,-0.0011360584758222103,0.001532925758510828,-26.47541046142578,39.07096481323242,9.27630615234375,2
0.8500567500013858,0.8500578750026762,0.8499115000013262,8.2407146692276e-05,-0.0021274685859680176,-0.0006250143051147461,0.0015764317940920591,-0.002319089602679014,0.002505181822925806,-26.470458984375,38.9276123046875,8.959548950195312,2
0.8601837916721706,0.8601847500030999,0.86003837500175,-0.00011256150901317596,-0.001990020275115967,-0.0012555117718875408,0.00253783306106925,-0.0011563533917069435,-0.000693541020154953,-26.667877197265625,39.269386291503906,9.165733337402344,2
0.8701304999995045,0.870131333336758,0.8699849999975413,0.00021636858582496643,-0.0017765164375305176,0.00018388079479336739,-0.0020206752233207226,0.00031845783814787865,-0.00020931381732225418,-26.603843688964844,39.1270866394043,9.170005798339844,2
0.8802338750028866,0.8802348333338159,0.8800884999945993,-0.00013087503612041473,-0.0014716386795043945,-0.0009519453160464764,-0.0012539513409137726,-0.0028829281218349934,-0.0009541995823383331,-26.853126525878906,38.97703170776367,9.219779968261719,2
0.8902950000046985,0.8902959166662185,0.8901496666658204,-0.0002136416733264923,-0.0021737217903137207,0.0007203817367553711,0.00027955789119005203,0.0007764166221022606,0.0009482898749411106,-26.56737518310547,38.849159240722656,9.112228393554688,2
0.9002683750004508,0.9002690833367524,0.900122791666945,0.0003583282232284546,-0.0022953152656555176,-0.00020867539569735527,-0.000523651484400034,-0.00019164243713021278,0.0004340335726737976,-26.4710693359375,39.00691604614258,9.261886596679688,2
0.9106205833377317,0.9106243333371822,0.9104780833295081,-0.000595390796661377,-0.0009218454360961914,-0.00040602684020996094,6.306124851107597e-05,-0.0013415059074759483,0.0002895207144320011,-26.625648498535156,39.09716033935547,9.477882385253906,2
0.9207525000019814,0.9207531666688737,0.9206069166684756,0.0005805287510156631,-0.0013185739517211914,0.0007050633430480957,0.000130439642816782,0.00034960126504302025,-0.0024918848648667336,-26.553512573242188,38.89918899536133,9.454017639160156,2
0.930745208337612,0.9307460416675895,0.9305997083283728,0.000565018504858017,-0.001806795597076416,-0.000440061092376709,0.0005885350983589888,-0.0008721589110791683,0.0011964510194957256,-26.70557403564453,38.8951530456543,9.311103820800781,2
0.9408467083339929,0.9408477916731499,0.9407014583339333,0.0004157666116952896,-0.002417325973510742,4.666997119784355e-05,-0.000997377559542656,0.0020927381701767445,0.0006044306792318821,-26.439178466796875,38.83768844604492,9.5289306640625,2
0.9508386666711885,0.9508397083336604,0.9506933333323104,0.0005965437740087509,-0.00208127498626709,0.0009920597076416016,9.861774742603302e-06,0.0012397938407957554,0.003245412837713957,-26.42382049560547,38.791664123535156,9.572441101074219,2
0.9609868750048918,0.9609875000023749,0.9608411666631582,0.00010186061263084412,-0.0014712214469909668,0.0010342597961425781,-0.0014612684026360512,0.0017085103318095207,-0.002377319149672985,-26.341400146484375,38.96231460571289,9.223731994628906,2
0.9710295000040787,0.9710302500025136,0.9708838750011637,-0.0003750436007976532,-0.002249419689178467,0.0005390644073486328,0.001201234757900238,-0.001037608366459608,0.000985658261924982,-26.40735626220703,39.070594787597656,9.621971130371094,2
0.9811444583392586,0.9811457916730433,0.9809994583338266,-8.487701416015625e-05,-0.002325713634490967,0.00017404556274414062,-0.0014006737619638443,0.000542977824807167,0.0008184118196368217,-26.55646514892578,38.96824645996094,9.256576538085938,2
0.9912445416703122,0.9912457083337358,0.9910993333323859,0.0004111751914024353,-0.0013031959533691406,-0.0005431175231933594,-0.000883330125361681,4.6358443796634674e-05,0.0006579486653208733,-26.69593048095703,38.838253021240234,9.391403198242188,2
1.0013704583398066,1.0013716666726395,1.0012252499946044,-9.280256927013397e-05,-0.001532435417175293,-0.00017583370208740234,-0.0007845270447432995,0.001366754062473774,-0.0008571231737732887,-26.56072235107422,38.82496643066406,9.21551513671875,2
1.0112620416693971,1.0112625000037951,1.0111162083339877,0.0009061563760042191,-0.0012274980545043945,-0.0009372229687869549,-0.0014221272431313992,-0.0013920636847615242,-0.0007618162781000137,-26.83673095703125,38.679386138916016,9.457260131835938,2
1.0214188750032918,1.0214199166730396,1.0212736249959562,0.0005211271345615387,-0.0020516514778137207,0.00029546022415161133,-0.0015433006919920444,0.002588563598692417,0.001476304605603218,-26.62358856201172,38.84864044189453,9.587638854980469,2
1.0314069166706759,1.0314073750050738,1.0312610833279905,0.00018705613911151886,-0.001944422721862793,-0.0010215044021606445,-0.0004903478547930717,0.0013171713799238205,0.004677595570683479,-26.747520446777344,39.000709533691406,9.332984924316406,2
1.04168804166693,1.0416890416672686,1.0415427499974612,0.0006533227860927582,-0.0016542673110961914,0.0002777576446533203,-0.0021364479325711727,-0.0011875317431986332,-0.00133608840405941,-26.577316284179688,39.003700256347656,9.466438293457031,2
1.0514951666700654,1.051495416671969,1.051349166664295,0.0006926078349351883,-0.00205075740814209,0.00013583898544311523,0.0014684232883155346,-0.0005366615951061249,-0.00126626156270504,-26.462295532226562,38.70831298828125,9.414657592773438,2
1.0618257916721632,1.0618265000011888,1.0616802083313814,-0.0001095253974199295,-0.0014557838439941406,-1.4841090887784958e-05,-0.0008016554638743401,-0.0013965964317321777,-0.00024254247546195984,-26.44574737548828,39.00812530517578,9.670562744140625,2
1.0718725833357894,1.0718734166730428,1.0717270833338262,0.00028109364211559296,-0.002371549606323242,-0.00023400736972689629,0.002549121156334877,0.002409000415354967,0.002331807743757963,-26.598052978515625,38.66783142089844,9.571540832519531,2
1.0818114166686428,1.0818122916680295,1.0816659166666795,0.00039475224912166595,-0.0022034645080566406,6.574392318725586e-05,-0.0021766582503914833,0.000895526260137558,0.002349118236452341,-26.72917938232422,38.76742172241211,9.687637329101562,2
1.0919402500003343,1.0919409166672267,1.09179458332801,0.0004110261797904968,-0.0018377304077148438,-6.437301635742188e-05,-0.0007381951436400414,-0.0009334525093436241,-0.00045736320316791534,-26.6326904296875,39.014129638671875,9.542915344238281,2
1.102096500006155,1.1020979166714824,1.1019515416628565,-8.441135287284851e-05,-0.0016852021217346191,0.0004144911654293537,0.0001552952453494072,0.0003874753601849079,-0.002262720838189125,-26.589637756347656,38.93695831298828,9.669174194335938,2
1.1120838750066468,1.1120849166691187,1.111938583329902,-0.00024960190057754517,-0.0018686652183532715,-0.0007184147834777832,-0.0008827694691717625,0.000374834518879652,0.001342439092695713,-26.767715454101562,38.89174270629883,10.032341003417969,2
1.122297375004564,1.1222987916698912,1.122152374999132,0.0010781548917293549,-0.0017313957214355469,-8.428143337368965e-05,0.002719955053180456,0.00027017248794436455,0.0007120687514543533,-26.681846618652344,38.9344367980957,9.823722839355469,2
1.1323661250062287,1.132367083337158,1.1322207499979413,0.00031103938817977905,-0.0018076896667480469,0.00039511965587735176,0.0005760088097304106,-0.0010210121981799603,-0.0006605852395296097,-26.576950073242188,38.875797271728516,9.956283569335938,2
1.14219466666691,1.1421952500022599,1.1420489166630432,0.00028865598142147064,-0.0020211338996887207,5.346490070223808e-05,0.00036561908200383186,0.0008304174989461899,-0.0003857463598251343,-26.61475372314453,38.77667236328125,10.086311340332031,2
1.1523402916718624,1.152341291672201,1.1521950416645268,1.0844320058822632e-05,-0.001700758934020996,0.0010496373288333416,-0.001292201690375805,0.0005149464122951031,-0.00031189899891614914,-26.50756072998047,38.80921936035156,9.394142150878906,2
1.1623162500036415,1.1623165833370876,1.1621703333294136,8.586980402469635e-05,-0.0022347569465637207,0.000919342041015625,0.0025739094708114862,-0.0019649891182780266,-0.0013310909271240234,-26.69384002685547,38.8680305480957,9.68255615234375,2
1.1723615833398071,1.1723620833363384,1.172215791666531,-0.000439714640378952,-0.0015479326248168945,0.00031375885009765625,-0.001531265676021576,-0.0028274976648390293,0.0010459520854055882,-26.5789794921875,38.94464111328125,9.8953857421875,2
1.1823826666732202,1.182382916667848,1.1822366249980405,-0.0005535520613193512,-0.0017921924591064453,-0.0013728737831115723,-0.0006750593893229961,1.7823651432991028e-05,-0.0007040109485387802,-26.257843017578125,39.088661193847656,9.751701354980469,2
1.1928421666671056,1.1928431250053109,1.1926968333282275,-0.0001658853143453598,-0.0021892189979553223,-0.0005847210995852947,-0.00039950525388121605,0.0008034692145884037,-0.0025225020945072174,-26.405113220214844,38.77896499633789,9.438941955566406,2
1.2026633333371137,1.2026637500021025,1.2025175000017043,0.00046407803893089294,-0.0017469525337219238,-0.00042992737144231796,-0.00015742378309369087,-0.0004924251697957516,0.002254410181194544,-26.327301025390625,38.97410202026367,9.533729553222656,2
1.2129227916666423,1.2129243333329214,1.2127779166621622,-0.00021797418594360352,-0.001517951488494873,-0.00033152103424072266,-0.0009294804185628891,-0.0016120863147079945,0.0008225929923355579,-26.600921630859375,38.904052734375,9.673210144042969,2
1.222864750001463,1.2228651666664518,1.2227188333345111,8.780695497989655e-05,-0.0017621517181396484,0.0002611870877444744,-0.0003092302940785885,-0.003435552818700671,0.00017411354929208755,-26.39820098876953,38.96689987182617,9.640007019042969,2
1.2342853333393577,1.2342866250037332,1.2341402499951073,7.409043610095978e-05,-0.0022197961807250977,-0.00036281347274780273,0.0014317284803837538,-0.0003923228941857815,-0.0003159092739224434,-26.621414184570312,38.52830505371094,9.995674133300781,2
1.2431082083348883,1.243109083334275,1.242962708332925,-0.00012975186109542847,-0.0018994808197021484,-0.0004986519925296307,-0.0007248995825648308,-0.0005992506630718708,-0.0019446983933448792,-26.537940979003906,38.812442779541016,9.566268920898438,2
1.2532479583387612,1.2532492083337274,1.2531028333323775,0.00047036074101924896,-0.0021587610244750977,-0.0006223320960998535,0.0025682495906949043,-0.0008307560347020626,0.002103119157254696,-26.547080993652344,38.762550354003906,10.126655578613281,2
1.2634145833362709,1.2634155833366094,1.2632692499973928,0.00020729564130306244,-0.0020514726638793945,-2.6464462280273438e-05,-0.0036787274293601513,-0.0011516669765114784,0.002666910644620657,-26.458175659179688,38.69927978515625,9.799674987792969,2
1.2733921250037383,1.2733928750021732,1.2732465000008233,0.00014454498887062073,-0.001364588737487793,-0.00026655150577425957,0.0021084975451231003,-4.433281719684601e-05,0.0009114658460021019,-26.667251586914062,38.90031433105469,9.614448547363281,2
1.2832926666669664,1.2832937083367142,1.2831474166669068,1.993030309677124e-07,-0.0004949569702148438,0.0006902217864990234,0.0004512122832238674,-0.0034949907567352057,-0.0004560677334666252,-26.726272583007812,38.822174072265625,9.429725646972656,2
1.293560541671468,1.2935612500004936,1.2934149583306862,0.0008449386805295944,-0.002020716667175293,0.0001837611198425293,0.0018118887674063444,-0.00022433651611208916,0.0005548535846173763,-26.348968505859375,38.6280403137207,9.442619323730469,2
1.3033420000065234,1.3033422916705604,1.3031960416628863,-0.00011162087321281433,-0.0019137263298034668,0.0008252263069152832,-0.002414547838270664,-0.00029677432030439377,0.0007897443138062954,-26.460670471191406,38.74257278442383,9.264442443847656,2
1.3136846250054077,1.3136853333344334,1.3135389583330834,-8.966773748397827e-05,-0.0017153024673461914,0.0003236532211303711,-0.00022552348673343658,-0.0019486094824969769,0.00043228641152381897,-26.53754425048828,38.875770568847656,9.147529602050781,2
1.3235806666707504,1.323581083335739,1.3234347916659317,0.00022287294268608093,-0.0018677115440368652,0.0003752708435058594,1.8156133592128754e-05,0.000749705359339714,-0.0012953057885169983,-26.4725341796875,38.958099365234375,9.086647033691406,2
1.3338482083345298,1.3338492083348683,1.333702916665061,0.0010564718395471573,-0.0016543269157409668,-0.0006533865816891193,0.0011971713975071907,-0.0014437995851039886,-0.0002485811710357666,-26.534713745117188,38.98530578613281,9.185592651367188,2
1.343770500003302,1.3437715000036405,1.3436251666644239,0.00018900074064731598,-0.0018984079360961914,-0.0008356575854122639,-0.002068663015961647,0.0009543769992887974,0.0009876578114926815,-26.492958068847656,39.10361862182617,8.928901672363281,2
1.354043333332811,1.3540446250044624,1.3538982499958365,0.0010337885469198227,-0.0025394558906555176,-7.826089859008789e-05,-0.001018419861793518,-0.0023699018638581038,-0.0005379337817430496,-26.511520385742188,38.935585021972656,9.222320556640625,2
1.3640204166731564,1.364021125002182,1.3638747916629654,-4.703924059867859e-05,-0.0016086101531982422,0.0004920964129269123,-0.0001787254586815834,-0.0028388844802975655,0.0016261506825685501,-26.43659210205078,38.69087219238281,9.545936584472656,2
1.3741710416725255,1.3741717916709604,1.3740254583317437,-0.00039397552609443665,-0.0014715194702148438,9.435461834073067e-05,0.001369850942865014,0.00014854269102215767,-0.0017251195386052132,-26.34709930419922,38.84000015258789,9.332489013671875,2
1.3842217916680966,1.3842227083368925,1.3840763333282666,0.00021608173847198486,-0.0020360350608825684,9.107682853937149e-05,0.00039966125041246414,0.0015387125313282013,-0.0001320168375968933,-26.337554931640625,38.86824417114258,9.313323974609375,2
1.3942671666663955,1.3942685000001802,1.3941221249988303,-0.0002510584890842438,-0.0016849637031555176,4.762457683682442e-05,-0.00086261797696352,-0.0005590189248323441,0.0009717070497572422,-26.618453979492188,38.85615158081055,9.420333862304688,2
1.4043252083356492,1.4043259166719508,1.404179541663325,-0.0001399461179971695,-0.0018221735954284668,0.00022995518520474434,0.0015499396249651909,-0.0008940445259213448,0.0003037862479686737,-26.53260040283203,38.799068450927734,8.912803649902344,2
1.4143358750006882,1.414336750000075,1.4141904583302676,0.0012702234089374542,-0.0014255642890930176,-0.0002447357401251793,0.0002982271835207939,0.0003177816979587078,-0.0013202307745814323,-26.67371368408203,39.01402282714844,8.876144409179688,2
1.4244419166716398,1.4244427500016172,1.4242964583318098,-4.131905734539032e-05,-0.0012121796607971191,-0.0006478428840637207,8.544046431779861e-05,-0.0025405893102288246,-0.0021753720939159393,-26.629737854003906,39.181949615478516,9.173957824707031,2
1.4344366250006715,1.4344369583341177,1.4342907083337195,0.0005646031349897385,-0.0017920732498168945,0.0004832739941775799,0.0031248268205672503,-0.0003268681466579437,0.000940266065299511,-26.471778869628906,38.87688446044922,9.235092163085938,2
1.4447261250024894,1.4447267499999725,1.4445804583301651,0.00019276142120361328,-0.002081632614135742,0.0007483367808163166,0.0029349434189498425,-0.0012009176425635815,-0.00040596164762973785,-26.402694702148438,38.9302978515625,9.090431213378906,2
1.454795000005106,1.454795458339504,1.4546491666624206,-0.0003319401293992996,-0.0023865103721618652,0.00026434706524014473,0.000863365363329649,-0.00019877497106790543,0.0020926613360643387,-26.62542724609375,38.76566696166992,8.806838989257812,2
1.4647283333397354,1.4647287916668574,1.46458249999705,0.00020336732268333435,-0.0013030767440795898,0.0003994707949459553,-0.0008253450505435467,0.00037939706817269325,0.0005909046158194542,-26.54363250732422,38.7387580871582,9.169044494628906,2
1.4749134166704607,1.4749139583364013,1.4747676666665939,0.00010067597031593323,-0.0010584592819213867,-6.806803867220879e-05,0.003583737649023533,-0.0009908187203109264,0.00261493818834424,-26.493385314941406,39.000022888183594,9.121856689453125,2
1.4849790833395673,1.484980416673352,1.484834041664726,-9.423308074474335e-05,-0.0020498037338256836,1.3232231140136719e-05,-0.0021449881605803967,-0.0015037432312965393,0.0011600535362958908,-26.3785400390625,39.20270919799805,9.091934204101562,2
1.4949374166681082,1.494937708339421,1.494791458331747,0.00026200897991657257,-0.0019738078117370605,0.0005250568501651287,-0.00024266820400953293,0.0009448225609958172,-0.0010152719914913177,-26.582672119140625,39.23367691040039,9.118194580078125,2
1.5050837916714954,1.5050846250014729,1.504938250000123,0.000581035390496254,-0.0017446279525756836,0.0008963351137936115,0.0008391079027205706,0.0016439021565020084,0.000969315879046917,-26.628890991210938,39.38838195800781,9.065353393554688,2
1.5152749166663853,1.5152757500036387,1.515129416664422,-0.00043268874287605286,-0.0018515586853027344,-0.0003045201301574707,0.0003152727149426937,-0.001141929067671299,-7.985811680555344e-05,-26.460777282714844,39.22822952270508,9.010948181152344,2
1.5252601250031148,1.5252604166671517,1.5251141249973443,0.00010912865400314331,-0.0022178292274475098,-0.0005126586183905602,0.00039809709414839745,-0.00046948110684752464,-0.0019544577226042747,-26.70764923095703,39.1229248046875,8.832771301269531,2
1.5353981250009383,1.5353992083328194,1.5352528333314694,0.00021052919328212738,-0.002187371253967285,0.00036209868267178535,0.002002701396122575,-0.0010737106204032898,-0.0007372191175818443,-26.684036254882812,39.31945037841797,8.776191711425781,2
1.5453595416693133,1.5453604166687,1.5452140833294834,0.0007964950054883957,-0.002309560775756836,-0.0012736320495605469,-0.0006367573514580727,-0.00024440232664346695,-7.19614326953888e-05,-26.625656127929688,39.16450881958008,9.340293884277344,2
1.5554512916714884,1.5554520833393326,1.5553057916622492,-0.0007104668766260147,-0.0016077160835266113,-0.0006718034856021404,-0.0002530096098780632,-0.0006536403670907021,0.0015958799049258232,-26.50176239013672,39.33307647705078,9.231895446777344,2
1.5653917083400302,1.565392000004067,1.5652457083342597,-0.001011032611131668,-0.001394033432006836,-0.00010174466297030449,-0.0009249253198504448,-0.002271777018904686,0.0003207582049071789,-26.538543701171875,39.22698211669922,9.210372924804688,2
1.5754565833340166,1.575457250000909,1.5753109583311016,9.206682443618774e-05,-0.0017147064208984375,8.499622344970703e-05,-0.002150419168174267,-0.000953158363699913,0.0002919621765613556,-26.62969970703125,39.069149017333984,9.460952758789062,2
1.5856104583363049,1.5856112916662823,1.585464999996475,7.988326251506805e-05,-0.0022945404052734375,0.00011074542999267578,0.0003902367316186428,0.0008660471066832542,0.0008099470287561417,-26.63056182861328,38.74155807495117,9.470985412597656,2
1.5957987916699494,1.5957993750052992,1.5956530833282159,-0.00013117119669914246,-0.0015620589256286621,0.000775456428527832,-0.00026744185015559196,0.0016400199383497238,0.0005972604267299175,-26.67223358154297,38.92771530151367,9.468711853027344,2
1.605687166673306,1.605687791670789,1.6055415000009816,0.0009266864508390427,-0.001989126205444336,0.0008744592778384686,0.0037070598918944597,0.0017840974032878876,-7.359031587839127e-05,-26.72675323486328,38.890411376953125,9.440673828125,2
1.6159972500026925,1.6159977500064997,1.6158514583294163,0.0004508141428232193,-0.002416551113128662,0.0004710550419986248,0.002654873300343752,0.001305215060710907,-0.0031086616218090057,-26.626388549804688,39.14985656738281,9.389129638671875,2
1.6261119166665594,1.6261128750047646,1.625966541665548,0.0004638899117708206,-0.0023100972175598145,-0.0006318092346191406,0.0007459195330739021,0.0004346277564764023,0.0014757043682038784,-26.55987548828125,38.94048309326172,9.548545837402344,2
1.6361927083344199,1.6361937500041677,1.6360473749955418,-0.0001432560384273529,-0.0020809173583984375,8.404254913330078e-05,-0.0018870863132178783,0.00040171388536691666,0.0017728013917803764,-26.491806030273438,38.9196891784668,9.375228881835938,2
1.6462402083343477,1.6462414583365899,1.6460950416658306,0.000858355313539505,-0.0015162825584411621,-0.00046753883361816406,-0.00013259612023830414,-0.0022912747226655483,0.0008414941839873791,-26.355316162109375,38.82912826538086,9.169548034667969,2
1.6563521250063786,1.6563530000057654,1.656206708328682,0.00042313337326049805,-0.002004683017730713,-0.0003235340118408203,-0.000940951518714428,-0.0019931565038859844,-0.0025967592373490334,-26.50067138671875,38.86116409301758,9.099143981933594,2
1.6663516250046086,1.666352750005899,1.6662062916657305,-8.390471339225769e-05,-0.0025087594985961914,0.0007566804997622967,-0.00022296328097581863,-0.0008264258503913879,0.00029809726402163506,-26.72374725341797,38.90619659423828,9.603225708007812,2
1.6765243750051013,1.6765250000025844,1.6763786666633678,-0.0003215223550796509,-0.0018520951271057129,0.0005947346799075603,0.0014149995986372232,0.00014722347259521484,0.001873471774160862,-26.563156127929688,39.00625228881836,9.383407592773438,2
1.6863527916721068,1.6863536250020843,1.686207333332277,0.0009785816073417664,-0.0014553070068359375,0.0005647535435855389,-0.0008998201228678226,0.0016388599760830402,0.0005514789372682571,-26.462158203125,39.07217025756836,9.703369140625,2
1.6964074166680803,1.6964083750062855,1.6962620833292021,-0.000619497150182724,-0.0017454028129577637,0.000708460807800293,0.0003553014248609543,-0.0015119616873562336,0.00026035308837890625,-26.4835205078125,38.94581604003906,9.41973876953125,2
1.7064308750050259,1.7064311666690628,1.7062849166613887,-0.00014662183821201324,-0.002080976963043213,0.0011383891105651855,0.0010229558683931828,-0.002254983875900507,-0.0005391277372837067,-26.5220947265625,38.687496185302734,9.327072143554688,2
1.7167394166681333,1.7167400000034831,1.7165937083336757,0.00033339299261569977,-0.001989603042602539,0.00018727825954556465,-0.00037769880145788193,-0.00034137023612856865,0.000529223121702671,-26.676239013671875,38.88920974731445,9.45733642578125,2
1.7268493750016205,1.726850208338874,1.7267039166617906,0.0006423741579055786,-0.0016537904739379883,-0.0006446833722293377,0.0017416446935385466,0.0007971310988068581,0.0016261790879070759,-26.725852966308594,39.09359359741211,9.310295104980469,2
1.7370194583345437,1.737019958338351,1.7368736249991343,0.0006772074848413467,-0.0018673539161682129,-4.178239032626152e-05,-0.0017908373847603798,-0.002036039251834154,-8.767284452915192e-05,-26.511642456054688,39.058868408203125,9.533370971679688,2
1.7471404166717548,1.747141375002684,1.7469950000013341,-2.4517998099327087e-05,-0.0018674135208129883,0.001325011719018221,-0.0018377089872956276,-0.0004935362376272678,-0.003221414051949978,-26.43383026123047,39.015560150146484,9.356269836425781,2
1.75717650000297,1.7571775416727178,1.7570312083335011,-0.0003470517694950104,-0.0016541481018066406,0.0004925127141177654,0.00012484658509492874,0.0007338239811360836,-0.0006049675866961479,-26.505943298339844,39.1190185546875,9.387351989746094,2
1.766975166668999,1.7669754166709026,1.7668291250010952,7.455050945281982e-05,-0.0018678903579711914,-0.0007231831550598145,-0.0024930411018431187,-0.0015162806957960129,-0.0015756897628307343,-26.62066650390625,39.04450225830078,9.3128662109375,2
1.7772380000023986,1.7772389166711946,1.7770925416625687,0.00023156777024269104,-0.0016545653343200684,-0.0003666877746582031,-0.0002902960404753685,0.0028935736045241356,-0.00015187636017799377,-26.409591674804688,39.11787033081055,9.126747131347656,2
1.787310041669116,1.7873112500019488,1.7871648333311896,4.025548696517944e-05,-0.0014560222625732422,-0.0012770891189575195,0.0010362244211137295,0.00036410288885235786,0.0003946041688323021,-26.49652862548828,39.02158737182617,9.213119506835938,2
1.797326541673101,1.7973276666671154,1.7971812916657655,0.0007304307073354721,-0.002066373825073242,0.0007950663566589355,-0.004751085769385099,0.0019356673583388329,-0.001091737300157547,-26.631752014160156,38.973140716552734,9.588768005371094,2
1.8075004583370173,1.8075015833383077,1.8073552083296818,0.000248761847615242,-0.0016240477561950684,0.00043338583782315254,-0.001177656464278698,-0.0006918073631823063,-0.002061128616333008,-26.52734375,38.947669982910156,9.347770690917969,2
1.8174180416681338,1.817419000006339,1.8172727083292557,-3.6248937249183655e-05,-0.0019753575325012207,-6.496906280517578e-06,-0.00021372875198721886,0.002483671996742487,-0.0010786866769194603,-26.534042358398438,38.9058952331543,9.812004089355469,2
1.8274529583359254,1.8274542500003008,1.8273079999999027,-9.182654321193695e-05,-0.0018073320388793945,0.00010734843090176582,0.0006086553912609816,-0.0005395482294261456,0.00017726048827171326,-26.64794158935547,39.08496856689453,9.517768859863281,2
1.837569875002373,1.8375704166683136,1.8374241666679154,-4.696473479270935e-05,-0.00229567289352417,-0.0003489255905151367,-0.0017137648537755013,0.00024553900584578514,-0.0024244487285614014,-26.78453826904297,38.93394470214844,9.25811767578125,2
1.8477295000047889,1.8477299583391869,1.8475836666621035,-0.00038667768239974976,-0.00211256742477417,-0.0011613955721259117,0.0006127725355327129,-0.0001906869001686573,-0.0003373287618160248,-26.426116943359375,39.32759094238281,9.829109191894531,2
1.8576879166721483,1.8576886666705832,1.8575423750007758,0.00013036839663982391,-0.0019142627716064453,-0.000954031478613615,-0.0016933935694396496,0.0016890764236450195,0.00042433151975274086,-26.411148071289062,39.30206298828125,9.594566345214844,2
1.8677869166713208,1.8677877500012983,1.8676414583314909,-0.00013838335871696472,-0.0017006397247314453,0.0005975370295345783,0.0009647074621170759,-0.00042280973866581917,0.0019489913247525692,-26.46800994873047,38.913787841796875,9.657821655273438,2
1.8779846250035916,1.877985750004882,1.8778394166656653,-0.0005953237414360046,-0.001685023307800293,8.225440979003906e-06,-0.0028871651738882065,-0.00021687662228941917,0.0007698694244027138,-26.495208740234375,39.0654182434082,9.757682800292969,2
1.88818545833783,1.8881870833356516,1.8880406666648923,-0.00011327117681503296,-0.0013953447341918945,-0.00012671994045376778,-0.0015148385427892208,-0.0009891930967569351,-0.0018003471195697784,-26.6978759765625,38.98404312133789,9.623680114746094,2
1.8981582500055083,1.8981596666708356,1.8980132916622097,5.151145160198212e-05,-0.0019144415855407715,0.0005816817283630371,0.001178486505523324,0.0006594648584723473,-0.0018705129623413086,-26.532485961914062,39.18927764892578,9.550949096679688,2
1.908206041669473,1.9082065833354136,1.908060249996197,0.00028486549854278564,-0.0014569759368896484,0.0009016986005008221,0.0006788773462176323,0.0008208523504436016,0.0014049089513719082,-26.447593688964844,39.17387390136719,9.419822692871094,2
1.9182403750019148,1.9182412500013015,1.9180949166620849,2.7105212211608887e-05,-0.0014417171478271484,-0.0005923504941165447,0.0014553989749401808,-0.002380297053605318,-0.0001771058887243271,-26.408889770507812,38.9244499206543,9.507644653320312,2
1.9284315833356231,1.9284326666675042,1.9282862916661543,0.00028999336063861847,-0.002357184886932373,-0.00022685574367642403,0.0014516704250127077,-0.00031421659514307976,-0.00041279569268226624,-26.238555908203125,39.10093688964844,9.300819396972656,2
1.938333791673358,1.9383342083383468,1.9381879166612634,0.00035067275166511536,-0.0017316341400146484,0.0001589655876159668,-0.0006399019621312618,0.0013418528251349926,0.0005926890298724174,-26.14246368408203,39.27187728881836,9.411613464355469,2
1.9483930000060354,1.9483936250035185,1.9482473333337111,-8.099712431430817e-05,-0.00148773193359375,-0.00020641135051846504,-0.0007922346703708172,-0.001165513414889574,-0.0010720528662204742,-26.525001525878906,39.150020599365234,9.432373046875,2
1.9584809583393508,1.958481749999919,1.9583354999995208,-0.0001467149704694748,-0.0006485581398010254,0.0010694265365600586,-0.0013107475824654102,0.0005518775433301926,-0.00015890318900346756,-26.274925231933594,39.2163200378418,9.517181396484375,2
1.968758583338058,1.9687596666699392,1.9686133750001318,0.0007242057472467422,-0.0009687542915344238,0.0008805994875729084,0.0002842196263372898,-0.0010169902816414833,0.0003204657696187496,-26.557350158691406,39.19353485107422,9.544448852539062,2
1.9785903750016587,1.9785907083351049,1.9784444166652975,6.314925849437714e-05,-0.0016555190086364746,0.0001634364016354084,0.00014025624841451645,-0.0007280921563506126,-0.0014390414580702782,-26.595001220703125,39.16080856323242,9.600730895996094,2
1.9886529166687978,1.9886532916716533,1.98850699999457,6.874091923236847e-05,-0.0015645027160644531,-3.504706546664238e-05,-0.0015452583320438862,-0.0008194386027753353,-0.0016089510172605515,-26.63025665283203,39.27006530761719,9.6263427734375,2
1.9988654583357857,1.9988662500036298,1.9987199583338224,0.0006345789879560471,-0.0015034079551696777,-0.00031375885009765625,-0.0007966486737132072,-0.0012605753727257252,-0.0004680836573243141,-26.562088012695312,39.28007888793945,9.635520935058594,2
2.008900791668566,2.0089015000048676,2.008755166665651,-3.6600977182388306e-06,-0.0018543004989624023,0.0005657672882080078,-0.0015394045040011406,0.0012212246656417847,0.0008286098018288612,-26.38544464111328,38.98280715942383,9.419822692871094,2
2.0191105833364418,2.019112000001769,2.018965625000419,0.0007083583623170853,-0.0015336871147155762,0.0006892085075378418,-2.3327302187681198e-05,-0.0007208799943327904,0.0012958236038684845,-26.454551696777344,39.201229095458984,9.36553955078125,2
2.0292603750058333,2.0292617916711606,2.0291154166625347,0.00026582740247249603,-0.002342402935028076,7.897615432739258e-05,-0.0011751442216336727,-0.0013496526516973972,-0.0005201864987611771,-26.463134765625,39.21440124511719,9.669975280761719,2
2.039181375002954,2.0391818749994854,2.0390355416675447,0.000309111550450325,-0.0017476677894592285,-0.0004290342330932617,-0.0002727075479924679,-0.00013626134023070335,-0.00206970889121294,-26.406593322753906,39.52685546875,9.749603271484375,2
2.0493285000047763,2.049329541667248,2.0491832499974407,0.0006946846842765808,-0.0018086433410644531,-0.0007868404500186443,-0.0025209481827914715,0.00013777799904346466,0.0014571156352758408,-26.343704223632812,39.416542053222656,9.733810424804688,2
2.059234958338493,2.0592359583388316,2.059089624999615,-2.7175992727279663e-06,-0.0023427605628967285,6.735371425747871e-05,-0.0001353672705590725,-0.0008543427102267742,-0.0010845139622688293,-26.249542236328125,39.22930145263672,9.779861450195312,2
2.0695069166686153,2.06950766666705,2.0693612916657003,-0.00015700794756412506,-0.001228928565979004,0.00033789826557040215,-0.00044429395347833633,-0.0003022695891559124,-0.0020824000239372253,-26.29480743408203,39.15919876098633,9.646995544433594,2
2.0794646666690824,2.0794652916665655,2.079318999996758,-0.00010963901877403259,-0.0018700957298278809,0.0013983841054141521,0.00029760273173451424,-0.0031461254693567753,-0.0018429569900035858,-26.270645141601562,39.04219436645508,9.428733825683594,2
2.089435041671095,2.0894359166704817,2.0892896666628076,0.00019110366702079773,-0.0026636123657226562,0.00029295729473233223,0.0018227952532470226,-0.0002526012249290943,-0.0015777060762047768,-26.2181396484375,39.2001838684082,9.74334716796875,2
2.099469250002585,2.0994697916685254,2.0993235416681273,-0.00014913827180862427,-0.0016108155250549316,-0.0005683307535946369,0.0005117522086948156,-0.00024814391508698463,0.00010436167940497398,-26.366806030273438,39.15404510498047,9.287757873535156,2
2.109813375005615,2.10981412500405,2.1096678749963758,-0.00031321868300437927,-0.0018853545188903809,-0.0006544589996337891,0.0007852588314563036,-0.00068623386323452,-0.001326289027929306,-26.594818115234375,38.963287353515625,9.654853820800781,2
2.119729041667597,2.1197294166704523,2.1195831666627782,-0.0001141577959060669,-0.0014126300811767578,0.0005682711489498615,-0.00036911340430378914,-0.0007260371930897236,-0.0021375250071287155,-26.531448364257812,38.88764572143555,9.37457275390625,2
2.130296458337398,2.130297083334881,2.1301507916650735,0.0010486580431461334,-0.002084672451019287,-0.00018387986347079277,0.0004945499822497368,-0.0019689342007040977,-0.004736769944429398,-26.335121154785156,39.05923080444336,9.42120361328125,2
2.139996958336269,2.1399975000022096,2.139851166662993,-0.00017237849533557892,-0.0021158456802368164,-0.0001360173337161541,-0.0016196127980947495,-0.002044998575001955,-0.0023812949657440186,-26.502960205078125,39.24008560180664,9.50201416015625,2
2.1502394166673184,2.150241041672416,2.150094625001657,-0.0007205791771411896,-0.001901865005493164,0.00027829408645629883,-0.0012992345727980137,0.0005688942037522793,0.0021961466409265995,-26.34815216064453,39.20893478393555,9.565330505371094,2
2.160023791671847,2.160024833334319,2.159878499995102,-0.00035209953784942627,-0.0019780993461608887,0.00043767737224698067,-0.0005541671998798847,0.0011611301451921463,-0.0018785158172249794,-26.432716369628906,39.134769439697266,9.454025268554688,2
2.1701516250032,2.170152541671996,2.1700062083327794,0.0005636308342218399,-0.0014290809631347656,-0.000632226001471281,-0.00016587832942605019,0.0015387660823762417,-0.00022229552268981934,-26.725967407226562,39.19038009643555,9.508476257324219,2
2.180389291672327,2.1803905416672933,2.1802441666659433,0.000611085444688797,-0.0024669766426086426,-0.00014543486759066582,-0.00230556633323431,-0.00011441484093666077,0.0005733300931751728,-26.459007263183594,39.33492660522461,9.325515747070312,2
2.1903335000024526,2.1903341249999357,2.190187791667995,4.276260733604431e-05,-0.0013379454612731934,-7.653189823031425e-05,0.0008377628400921822,-0.0005362597294151783,0.00027665402740240097,-26.41564178466797,39.44156265258789,9.383865356445312,2
2.2007097083333065,2.200710875004006,2.2005645416647894,-0.00018949061632156372,-0.0011854171752929688,-0.000350236427038908,-0.00036765122786164284,0.0026160436682403088,-0.00135074183344841,-26.362876892089844,39.367881774902344,9.428024291992188,2
2.210568416667229,2.210569333336025,2.2104230416662176,-0.0003245547413825989,-0.0011705756187438965,-0.00016176654025912285,-0.00135781429708004,-0.0005429978482425213,-0.0002987924963235855,-26.3087158203125,39.319252014160156,9.679191589355469,2
2.220530916667485,2.220535041669791,2.2203887083305744,-0.0010853596031665802,-0.000941932201385498,0.00014007091522216797,0.002168434439226985,0.0002125753089785576,-0.001530616544187069,-26.355865478515625,39.28049087524414,9.483505249023438,2
2.230587458339869,2.2305881666688947,2.2304419166612206,-7.523037493228912e-05,-0.0016895532608032227,0.0006239414215087891,-0.0004814108833670616,0.00047809258103370667,-0.0016145063564181328,-26.271560668945312,39.28181457519531,9.517608642578125,2
2.2405945416685427,2.2405949583335314,2.2404487083331333,0.000271867960691452,-0.0021932125091552734,0.0004438157193362713,0.0012941125314682722,0.0012927516363561153,-6.726477295160294e-05,-26.160400390625,39.46842956542969,9.651832580566406,2
2.2508809583378024,2.2508817083362374,2.25073541666643,0.00048503465950489044,-0.0015676617622375488,0.00033724308013916016,-0.0007770280353724957,-0.0017608292400836945,0.0008408729918301105,-26.33277130126953,39.151336669921875,9.578025817871094,2
2.2608424166683108,2.2608428750027088,2.2606965833329014,0.0006288290023803711,-0.0012169480323791504,0.00040733860805630684,0.0023564533330500126,0.0011210949160158634,-0.0017477674409747124,-26.443267822265625,39.33046340942383,9.39947509765625,2
2.270879458337731,2.270879916672129,2.270733624995046,0.00024654343724250793,-0.001812279224395752,6.783055141568184e-05,0.0007580239325761795,0.0006622322835028172,-0.0006705187261104584,-26.32788848876953,39.12923049926758,9.630035400390625,2
2.2811218750066473,2.28112287499971,2.28097649999836,0.00024369917809963226,-0.0018883347511291504,4.9233436584472656e-05,-0.003264792263507843,-0.0009572263807058334,0.0013574743643403053,-26.343544006347656,39.17259216308594,9.250244140625,2
2.2912817916731,2.2912858333365875,2.291139499997371,-0.00037124939262866974,-0.001354515552520752,0.0005849604494869709,-0.0003046886995434761,0.001078760251402855,-0.001963486894965172,-26.466514587402344,39.014522552490234,9.421188354492188,2
2.301380416669417,2.3013815416707075,2.3012352500009,0.0001466497778892517,-0.001568138599395752,-0.00015014410018920898,0.00013505388051271439,-0.0005611428059637547,-0.000623985193669796,-26.34490203857422,39.16144943237305,9.47711181640625,2
2.3113544583393377,2.311355083336821,2.311208708328195,0.0010687876492738724,-0.0013087987899780273,0.0005921721458435059,0.0012943276669830084,0.0037867343053221703,-0.001615745946764946,-26.379562377929688,39.09961700439453,9.573295593261719,2
2.321378791668394,2.3213799166696845,2.321233583330468,0.000887678936123848,-0.0015833377838134766,-0.0010602474212646484,0.0008936373051255941,0.00028764596208930016,4.038214683532715e-05,-26.455482482910156,39.03164291381836,9.428863525390625,2
2.3316302500024904,2.3316308749999735,2.3314845416680328,0.00019076094031333923,-0.0019345879554748535,0.00041860295459628105,-0.0015229149721562862,0.0007624877616763115,0.0009258831851184368,-26.560195922851562,38.96185302734375,9.543266296386719,2
2.3415543333394453,2.3415554166713264,2.3414090416627005,-0.0004601646214723587,-0.0019191503524780273,0.0004820823669433594,-0.0005675060674548149,-0.0022754911333322525,-0.0009339433163404465,-26.504470825195312,39.269439697265625,9.4283447265625,2
2.3514568750033504,2.3514579583352315,2.351311666665424,0.0001327749341726303,-0.0009121894836425781,0.0008850689046084881,-0.0008575241081416607,-0.0002919686958193779,0.0001899111084640026,-26.412185668945312,39.19489288330078,9.532447814941406,2
2.361638333335577,2.3616392916665063,2.361493041666108,-0.0006067976355552673,-0.001339256763458252,-0.0002747182734310627,0.0004929013084620237,0.0011287489905953407,-0.0008071605116128922,-26.37664031982422,39.167667388916016,9.83856201171875,2
2.371539333333203,2.371539750005468,2.371393374996842,-0.0002008303999900818,-0.0017360448837280273,-0.0001723174937069416,0.0012449780479073524,0.0011561792343854904,0.0007888716645538807,-26.345718383789062,39.34715270996094,9.679443359375,2
2.3819691666722065,2.381970041671593,2.381823750001786,-0.0013996884226799011,-0.0016748905181884766,0.0004054899327456951,-0.000690982211381197,-0.0008529773913323879,-0.001494639553129673,-26.475425720214844,39.21192932128906,9.670013427734375,2
2.3918950833394774,2.391895916669455,2.3917496249996475,0.0006702765822410583,-0.0020107626914978027,0.000887096393853426,-0.00120603758841753,4.823599010705948e-05,0.0001754285767674446,-26.695281982421875,39.27204895019531,9.420089721679688,2
2.401961083334754,2.4019616250006948,2.401815291661478,-0.00046736374497413635,-0.001827836036682129,9.638071060180664e-05,0.0023100022226572037,-0.00025724153965711594,-3.291759639978409e-05,-26.32337188720703,39.1519889831543,9.532302856445312,2
2.4120862083364045,2.412087166667334,2.411940833328117,0.00018930435180664062,-0.002453446388244629,0.00029736757278442383,-0.0011486448347568512,-0.002262069145217538,-0.0008369255810976028,-26.158905029296875,39.1558952331543,9.639015197753906,2
2.4220037083359784,2.4220043333334615,2.4218579583321116,-0.0002450384199619293,-0.0016292333602905273,0.0020390753634274006,0.001417163759469986,-0.0012309649027884007,0.0019285962916910648,-26.40343475341797,38.877742767333984,9.748573303222656,2
2.432234083338699,2.4322351250011707,2.4320888333313633,-0.0007573608309030533,-0.0013086199760437012,0.00023674964904785156,0.0005263362545520067,0.0004513543099164963,-0.0004727765917778015,-26.527008056640625,38.99930191040039,9.209732055664062,2
2.442225166669232,2.4422257083351724,2.442079416665365,0.000712888315320015,-0.0022853612899780273,8.177757263183594e-05,-0.00018752040341496468,-0.0009190235286951065,-0.0005697747692465782,-26.466087341308594,39.10883712768555,9.572853088378906,2
2.452297333336901,2.4522980000037933,2.4521516666645766,-0.0004304274916648865,-0.0021633505821228027,-0.00033533619716763496,-0.0015372103080153465,7.593352347612381e-05,0.000814004335552454,-26.814773559570312,39.182823181152344,9.553070068359375,2
2.4626233333328855,2.462624500003585,2.462478124994959,0.0006348788738250732,-0.0017514228820800781,-0.00022083520889282227,0.0005985000170767307,-0.0023983304854482412,-0.000853109173476696,-26.596092224121094,38.908809661865234,9.353599548339844,2
2.47263987500628,2.4726405416731723,2.4724941666645464,0.00021979399025440216,-0.0014004707336425781,9.077833965420723e-05,-0.003205825574696064,-0.0005314545705914497,-0.0013191625475883484,-26.469703674316406,39.34749984741211,9.506546020507812,2
2.4824435000045924,2.482444375003979,2.482298124996305,-0.0006264988332986832,-0.002270519733428955,-0.00017261458560824394,-0.0027673160657286644,0.0005905339494347572,-0.0004291422665119171,-26.597145080566406,39.053497314453125,9.701667785644531,2
2.492464958333585,2.492465416667983,2.492319166667585,-0.0001678764820098877,-0.0013400912284851074,0.00012135505676269531,0.00014564953744411469,0.0015964098274707794,-0.0019434159621596336,-26.4822998046875,39.17823028564453,9.431861877441406,2
2.502574125006504,2.5025743333389983,2.502428083331324,-0.0005564354360103607,-0.0021491646766662598,-0.00016999244689941406,7.305201143026352e-05,-0.0016470663249492645,0.0005586748011410236,-26.330230712890625,39.205379486083984,9.30670166015625,2
2.5126656249994994,2.5126660833338974,2.51251979166409,-0.000519903376698494,-0.001614987850189209,0.0008980631828308105,-0.00013227760791778564,-0.0016313535161316395,-0.0021031545475125313,-26.379981994628906,39.2032585144043,9.331199645996094,2
2.5229823333356762,2.5229828750016168,2.5228365833318094,0.00033363141119480133,-0.001935422420501709,-8.058501407504082e-05,0.0007534604519605637,8.840952068567276e-05,0.0001793983392417431,-26.467628479003906,39.17943572998047,9.2901611328125,2
2.533028416670277,2.533029208338121,2.5328828749989043,-0.0008185636252164841,-0.0013400912284851074,0.0003104209899902344,0.001625912031158805,-0.0013739322312176228,0.00018419232219457626,-26.368759155273438,39.29039764404297,9.341270446777344,2
2.5429816666728584,2.542982208338799,2.5428359166617156,-0.00016867369413375854,-0.0016453862190246582,0.0007763509638607502,-0.00027475645765662193,7.297005504369736e-05,-0.0005591614171862602,-26.41436767578125,39.23323059082031,9.676048278808594,2
2.553148875005718,2.5531499999997322,2.553003708329925,-0.0003476310521364212,-0.0024085640907287598,0.0007251505739986897,0.0005082131829112768,-0.0012058797292411327,0.0004634922370314598,-26.32494354248047,39.253726959228516,9.927337646484375,2
2.56324033333658,2.5632411250044242,2.5630947499957983,-0.0008157417178153992,-0.0017218589782714844,0.0005074744112789631,-0.0016315723769366741,3.2092444598674774e-05,-0.0002955235540866852,-26.37317657470703,39.19013214111328,9.423629760742188,2
2.5731718333336175,2.5731722916680155,2.573025999998208,-3.17208468914032e-05,-0.0016149282455444336,3.272294998168945e-05,-0.0002762898802757263,-0.0002813613973557949,0.0001675998792052269,-26.407745361328125,39.40251541137695,9.376922607421875,2
2.583280291670235,2.583281083338079,2.5831347499988624,0.0006384309381246567,-0.0021795034408569336,0.0007643704302608967,-0.0010002003982663155,0.0015757647342979908,-0.00011289026588201523,-26.457595825195312,39.237796783447266,9.295654296875,2
2.5935030416731024,2.593504333337478,2.593357958328852,-0.0014437418431043625,-0.0021951794624328613,0.0009979014284908772,-4.013115540146828e-05,0.0015904121100902557,-0.001427159644663334,-26.60033416748047,39.223358154296875,9.15545654296875,2
2.603503833335708,2.6035043750016484,2.603358083331841,-0.0011101234704256058,-0.0017527341842651367,-0.00020843744277954102,0.0005999533459544182,-0.0010711122304201126,0.0007937056943774223,-26.558456420898438,39.15346908569336,9.219612121582031,2
2.6134928333340213,2.6134937500028173,2.61334745833301,0.0005965195596218109,-0.0015085935592651367,-0.0008476376533508301,0.0015411146450787783,0.0016045658849179745,-6.543006747961044e-05,-26.54461669921875,39.32662582397461,9.325210571289062,2
2.6236055833360297,2.623606416673283,2.6234601249961997,-0.0003952588886022568,-0.0023630261421203613,-0.00030434131622314453,0.0004524772521108389,0.000661458820104599,-0.0011735325679183006,-26.45427703857422,39.13099670410156,9.696525573730469,2
2.633616166669526,2.633616458333563,2.633470208333165,-5.146302282810211e-05,-0.0012034177780151367,-8.96453857421875e-05,0.003570772707462311,0.0007658544927835464,-0.0015687458217144012,-26.35887908935547,39.25563049316406,9.455673217773438,2
2.643832666668459,2.6438336666687974,2.64368737499899,0.00048258528113365173,-0.0012944340705871582,0.00022488879039883614,0.000728218350559473,-0.00047319941222667694,0.0024044597521424294,-26.57879638671875,39.069759368896484,9.462913513183594,2
2.65385362500092,2.6538544166687643,2.653708124998957,0.0003617815673351288,-0.0022861361503601074,-1.0967254638671875e-05,0.0020917567890137434,-0.001566693652421236,-0.00028986018151044846,-26.55188751220703,39.08295440673828,9.561042785644531,2
2.6639330416728626,2.6639334999999846,2.6637872083301772,0.00020450539886951447,-0.002072572708129883,0.0005559329874813557,9.855395182967186e-05,-0.00037820637226104736,-0.002078106626868248,-26.60802459716797,39.12034225463867,9.670806884765625,2
2.6739960000049905,2.6739965833330643,2.673850291663257,-0.00015200115740299225,-0.0010653138160705566,0.0007573375478386879,-0.004664509557187557,4.896428436040878e-05,0.0005195410922169685,-26.258377075195312,39.34314727783203,9.609352111816406,2
2.6842576666676905,2.6842632083353237,2.6841168333339738,-2.0664185285568237e-05,-0.001981079578399658,-9.614182636141777e-05,0.0007171116303652525,0.0002117878757417202,-0.0021980395540595055,-26.39824676513672,39.099971771240234,9.345710754394531,2
2.694251458335202,2.694252666668035,2.6941063333288184,-0.00023352913558483124,-0.0018441081047058105,0.0004469756968319416,-0.003074697218835354,-0.0008470849134027958,0.0006502112373709679,-26.492149353027344,39.125545501708984,9.498870849609375,2
2.7045022916718153,2.7045030833396595,2.7043567083310336,-0.0002003442496061325,-0.0014622807502746582,4.416797310113907e-05,0.0011008880101144314,-0.0006418335251510143,0.0033507077023386955,-26.32978057861328,39.096351623535156,9.340492248535156,2
2.7143058750007185,2.714306541667611,2.714160166666261,0.0005907323211431503,-0.002026677131652832,-0.00010222243145108223,-0.0006410856731235981,0.0015539429150521755,-0.000527653843164444,-26.3309326171875,39.14912033081055,9.261573791503906,2
2.7246120416675694,2.7246132500004023,2.7244668749990524,0.0007052496075630188,-0.0014469623565673828,0.00015145540237426758,-0.004358929581940174,-0.0012940755113959312,-0.003106364980340004,-26.360610961914062,39.136314392089844,9.417129516601562,2
2.734663458337309,2.734664833333227,2.734518458331877,-0.0012019556015729904,-0.0008218288421630859,-0.000382185447961092,0.0011607382912188768,-0.00210021436214447,0.000118989497423172,-26.303070068359375,39.235191345214844,9.746925354003906,2
2.7445235416671494,2.7445242916728603,2.744377999995777,-0.0004544369876384735,-0.0014017224311828613,-0.00023424671962857246,0.0011423383839428425,0.0026316107250750065,0.0006691762246191502,-26.413253784179688,39.33522415161133,9.745445251464844,2
2.754649291666283,2.7546500416719937,2.7545037499949103,0.000317595899105072,-0.001965761184692383,1.0848045349121094e-05,5.1507726311683655e-05,0.0017522349953651428,0.0008444120176136494,-26.488632202148438,39.20327377319336,9.590385437011719,2
2.7646584166723187,2.7646587083363556,2.7645124583286815,-0.00012127496302127838,-0.002133667469024658,0.00021213246509432793,-0.0016320073045790195,-0.002526175696402788,0.00024448055773973465,-26.273574829101562,39.028255462646484,9.306838989257812,2
2.774902250006562,2.7749027500030934,2.7747564999954193,-0.0003669038414955139,-0.001950383186340332,-0.00023567676544189453,0.0026466273702681065,-0.0006875293329358101,0.0005544726736843586,-26.10626220703125,39.24661636352539,9.500419616699219,2
2.784907250003016,2.7849077499995474,2.78476145832974,0.00025506503880023956,-0.002224862575531006,-0.00029468536376953125,0.001309952000156045,0.0008109007030725479,0.0018160347826778889,-26.387351989746094,39.219207763671875,9.205856323242188,2
2.7950679166679038,2.795068708335748,2.7949224166659405,-0.0003690812736749649,-0.0017212629318237305,-0.0003771185874938965,7.531046867370605e-05,0.0011046472936868668,-0.0018892213702201843,-26.39238739013672,39.12531280517578,9.529953002929688,2
2.8049984166718787,2.804998791667458,2.8048524999976507,0.0006475318223237991,-0.001706242561340332,3.296229988336563e-05,-0.0020898431539535522,-7.422966882586479e-05,-0.0010723154991865158,-26.34465789794922,39.30173873901367,9.479141235351562,2
2.815156708333234,2.8151574166695355,2.8150110416681855,-2.7282163500785828e-05,-0.001370549201965332,-0.0002192254178225994,0.0011171353980898857,-0.0003938088193535805,-0.0015543485060334206,-26.130699157714844,39.19355773925781,9.293922424316406,2
2.8253406250005355,2.825341791671235,2.8251954583320185,0.00043245404958724976,-0.0017066001892089844,0.0006310944445431232,-0.0018838420510292053,0.0013913153670728207,-0.002066567540168762,-26.417213439941406,39.2158317565918,9.132675170898438,2
2.835285583336372,2.8352864166663494,2.835140124996542,9.134039282798767e-05,-0.0015999674797058105,0.0010831360705196857,-0.0007000667974352837,0.0001332382671535015,0.00178196607157588,-26.395103454589844,39.25876235961914,9.279930114746094,2
2.8454548333393177,2.8454560000027413,2.8453096250013914,-0.0011355765163898468,-0.0013553500175476074,-0.000498354434967041,-0.0015321001410484314,0.003073119092732668,0.002734629437327385,-26.115219116210938,39.28579330444336,9.80572509765625,2
2.8554255416675005,2.8554262916732114,2.8552799166645855,0.0003160182386636734,-0.0024082064628601074,3.3795833587646484e-05,-0.0010652481578290462,0.0006286031566560268,-0.001802331767976284,-26.360328674316406,39.38895797729492,9.754386901855469,2
2.866155041672755,2.8661562916677212,2.8660099166663713,-0.00034393370151519775,-0.0021340250968933105,1.8119346350431442e-05,-0.0012774807401001453,-9.763380512595177e-05,-0.0026848772540688515,-26.5765380859375,39.16404342651367,10.145477294921875,2
2.875623291671218,2.8756244583346415,2.8754780833332916,-0.0004376322031021118,-0.0018750429153442383,5.412101745605469e-05,0.001274892594665289,0.0029450273141264915,-0.0007737930864095688,-26.379066467285156,39.326995849609375,9.868560791015625,2
2.8857155833393335,2.885716291668359,2.885569999998552,-0.00010243058204650879,-0.0017834901809692383,0.0003744964487850666,-0.0007109921425580978,0.000441565178334713,0.001019984483718872,-26.44866180419922,39.0502815246582,9.455192565917969,2
2.8957415416662116,2.8957425833359594,2.8955963333282853,-0.0004175640642642975,-0.002119123935699463,0.00031119538471102715,-0.0015448275953531265,0.0015915180556476116,0.00029267510399222374,-26.40521240234375,39.35292053222656,9.170257568359375,2
2.9056064583346597,2.9056067083365633,2.905460416666756,-0.0008920338004827499,-0.0015546083450317383,0.00013846158981323242,0.00028073927387595177,0.00023902533575892448,-0.0022862209007143974,-26.38013458251953,39.164329528808594,9.240318298339844,2
2.9159717916700174,2.915972624999995,2.9158263749995967,-0.0005485657602548599,-0.0009295344352722168,0.0003942251205444336,0.00317186675965786,-0.0015199924819171429,-0.0024284329265356064,-26.50048065185547,39.14646911621094,9.287895202636719,2
2.926016666671785,2.9260173333386774,2.9258709999994608,-5.875900387763977e-05,-0.0010823607444763184,-7.032882422208786e-06,0.0011669714003801346,0.0009027342312037945,-0.0002524629235267639,-26.25640106201172,39.211830139160156,9.328018188476562,2
2.936112499999581,2.93611312500434,2.9359668333345326,-0.000517919659614563,-0.001662135124206543,0.0006263256072998047,0.0005477864760905504,-0.0009609460830688477,0.0018857894465327263,-26.275901794433594,39.00873947143555,9.598213195800781,2
2.9461851666710572,2.946185875000083,2.946039499998733,0.0002996232360601425,-0.0019366741180419922,1.3709068298339844e-06,-0.0004740995354950428,0.00011792546138167381,-0.0014344723895192146,-26.564361572265625,39.17344665527344,9.584129333496094,2
2.956193958336371,2.9561949583367095,2.9560485833280836,-0.0003952961415052414,-0.0024251937866210938,0.0007156138308346272,-0.0029079625383019447,-0.0019239201210439205,-0.001809711568057537,-26.525344848632812,39.14658737182617,9.535041809082031,2
2.9662859166710405,2.9662871666732826,2.9661409166656085,0.0008069165050983429,-0.0013571381568908691,0.00037998007610440254,0.0023855213075876236,7.299706339836121e-06,-0.0006949203088879585,-26.5052490234375,39.29405975341797,9.664314270019531,2
2.9764536666698405,2.9764544583376846,2.9763080833290587,0.00046541728079319,-0.0017688870429992676,4.583550617098808e-05,0.002497107721865177,0.0010326169431209564,0.0011775488965213299,-26.676010131835938,39.28410339355469,9.623023986816406,2
2.9866937916667666,2.9866948750059237,2.986548541666707,-3.876909613609314e-05,-0.00266873836517334,-0.00016820477321743965,0.0014005603734403849,-0.000458527822047472,0.0016266717575490475,-26.685951232910156,39.27471160888672,9.733612060546875,2
2.9970016666702577,2.9970028750030906,2.9968564583323314,0.0003554653376340866,-0.0016765594482421875,0.0011304612271487713,0.000668723601847887,-0.00025160051882267,0.0008719316683709621,-26.446044921875,39.15678787231445,9.640205383300781,2
3.0068362083329703,3.006836625005235,3.0066902916660183,-0.00025891512632369995,-0.0021953582763671875,0.001086890697479248,0.00025565316900610924,-0.002829807810485363,-0.0018076952546834946,-26.384536743164062,39.02125930786133,9.568603515625,2
3.0166200833336916,3.0166208750015358,3.0164745833317284,-0.0002780761569738388,-0.0019055604934692383,0.0001780395396053791,0.0010311657097190619,0.0006288392469286919,0.0011340328492224216,-26.5684814453125,39.15105438232422,9.617996215820312,2
3.026755791666801,3.026756541672512,3.026610291664838,-0.00011463463306427002,-0.001981675624847412,-0.0006983275525271893,0.00038988329470157623,-0.0024928702041506767,0.00158676877617836,-26.548179626464844,39.19878005981445,9.852310180664062,2
3.0368517500028247,3.0368520000047283,3.0367057499970542,-0.0005203410983085632,-0.0018442869186401367,-0.00044333888217806816,0.0005773699376732111,0.0029330546967685223,-0.0003783777356147766,-26.554000854492188,39.10591125488281,9.6695556640625,2
3.0469723333371803,3.046973041666206,3.0468267499963986,-0.0006721056997776031,-0.0016614794731140137,-0.0005326271057128906,0.0004587580915540457,-0.0016429596580564976,-0.002830745652318001,-26.682723999023438,39.24980163574219,9.331695556640625,2
3.057239333335019,3.057240375004767,3.0570940833349596,0.0002503730356693268,-0.0012191534042358398,0.0009630327112972736,-0.0026539447717368603,7.424643263220787e-05,-0.0020709456875920296,-26.583999633789062,39.08269500732422,9.503913879394531,2
3.0671320000037667,3.067136916666641,3.0669906249968335,-4.964880645275116e-05,-0.001371920108795166,0.000621140468865633,0.00010713143274188042,0.001080954447388649,0.0020310375839471817,-26.61931610107422,39.16297149658203,9.634712219238281,2
3.0771874166675843,3.077188458337332,3.077042083328706,0.000380517914891243,-0.0016464591026306152,0.0003796229138970375,0.0028429969679564238,-0.000735587440431118,0.0006296820938587189,-26.61292266845703,39.25946807861328,9.210609436035156,2
3.087216875006561,3.0872176666671294,3.0870713333279127,-0.0007221214473247528,-0.0023328065872192383,0.00046497583389282227,0.00041728513315320015,-0.0005002934485673904,-0.000458727590739727,-26.5474853515625,38.97401428222656,9.445999145507812,2
3.097460458338901,3.0974620416673133,3.097315624996554,-0.00014715828001499176,-0.0022260546684265137,0.0005364413373172283,0.0019443416967988014,0.000395060982555151,-0.0011990871280431747,-26.58501434326172,39.01559829711914,9.226242065429688,2
3.1071960416666116,3.107196708333504,3.1070504166636965,0.0002361256629228592,-0.0016160011291503906,-0.0005705361254513264,0.0002852417528629303,-0.00219199201092124,0.0006076060235500336,-26.54680633544922,39.153076171875,9.366447448730469,2
3.1176269999996293,3.1176284166722326,3.117482083333016,0.00027571432292461395,-0.001417696475982666,0.0010616183280944824,0.0014479777310043573,-0.0003584055230021477,0.0025703557766973972,-26.447891235351562,39.19532775878906,9.551849365234375,2
3.1279235833353596,3.1279246250051074,3.1277782916658907,0.0006308183073997498,-0.0021347999572753906,0.001019597053527832,0.0008785352110862732,0.0030693048611283302,-0.00020297523587942123,-26.5067138671875,39.018985748291016,9.477012634277344,2
3.137706833338598,3.137707750000118,3.1375614583303104,0.00013337843120098114,-0.0016158819198608398,0.0003319983370602131,8.571194484829903e-05,0.0015355907380580902,-0.0006708931177854538,-26.237831115722656,39.130123138427734,9.681724548339844,2
3.147700833338604,3.1477021666723886,3.147555833333172,-0.00037628039717674255,-0.0021042823791503906,0.0007331371307373047,0.0018691716250032187,0.00033560534939169884,-0.0010086679831147194,-26.387901306152344,39.11606216430664,9.619071960449219,2
3.157656750001479,3.157657375006238,3.157511124998564,-4.7927722334861755e-05,-0.0021956562995910645,0.0006387233734130859,-0.0021790992468595505,-0.0023493939079344273,0.00041612330824136734,-26.46459197998047,39.07306671142578,9.705574035644531,2
3.1676902916733525,3.167690708338341,3.167544458330667,-0.0003336220979690552,-0.0015698671340942383,-4.363013431429863e-05,0.0008739030454307795,0.0001380997709929943,-9.35019925236702e-05,-26.503875732421875,39.40948486328125,9.363143920898438,2
3.178033083335322,3.178034000004118,3.1778877083343104,-0.0004824809730052948,-0.0014172792434692383,-4.9769412726163864e-05,-0.002639339305460453,-0.0018307752907276154,-0.0007358565926551819,-26.47698211669922,39.35110092163086,9.671684265136719,2
3.1880969166668365,3.1880972500002827,3.1879509583304753,-0.0008872170001268387,-0.0005934834480285645,-0.00038230419158935547,-0.0010508792474865913,0.000615712720900774,-0.0009640604257583618,-26.494827270507812,39.04352951049805,9.471664428710938,2
3.1982157500024186,3.1982166666712146,3.198070333331998,-0.00015114806592464447,-0.001326143741607666,-3.594160079956055e-05,6.525171920657158e-05,0.00018428079783916473,-0.0012596705928444862,-26.541725158691406,39.2934684753418,9.766960144042969,2
3.208197833337181,3.2081982500021695,3.208051958332362,-0.00022316165268421173,-0.002134859561920166,-0.00021666241809725761,-0.0014933920465409756,0.0005537285469472408,0.001755314413458109,-26.54827117919922,39.142616271972656,9.855796813964844,2
3.218182958335092,3.2181837083335267,3.218037333332177,-0.00013357028365135193,-0.0017989277839660645,0.0010709171183407307,-0.0016843406483530998,0.00047063780948519707,-0.0009832140058279037,-26.67394256591797,39.02289962768555,9.833992004394531,2
3.2283684166686726,3.2283697500024573,3.2282233750011073,-0.0005942024290561676,-0.00213468074798584,0.0007581114768981934,5.800137296319008e-05,-0.00023868493735790253,-0.0009004250168800354,-26.493324279785156,39.02552795410156,9.775215148925781,2
3.2382146250020014,3.2382150833363994,3.2380688333287253,-9.73232090473175e-06,-0.0014177560806274414,-0.0004917983897030354,-0.0021657380275428295,0.001422328408807516,-0.0027947314083576202,-26.569732666015625,39.2806510925293,9.954513549804688,2
3.2484883750003064,3.2484895833331393,3.2483432500011986,-0.000876331701874733,-0.0015248656272888184,0.0009807348251342773,0.0006039319559931755,-0.00010593654587864876,0.0010190601460635662,-26.52812957763672,39.24767303466797,9.848419189453125,2
3.2586531666675,3.258653958335344,3.2585076249961276,-0.00030087679624557495,-0.0012499094009399414,-2.2351276129484177e-05,-0.0013463008217513561,3.121653571724892e-05,0.002699248492717743,-26.628646850585938,39.250640869140625,9.645393371582031,2
3.2686973750023753,3.26869870833616,3.268552291665401,-0.00025009550154209137,-0.0017226338386535645,0.0007905964739620686,-0.0005074543878436089,-0.002540558809414506,9.507033973932266e-05,-26.50232696533203,38.99867248535156,9.826087951660156,2
3.278663958335528,3.278664833334915,3.278518499995698,-0.0004544965922832489,-0.00228726863861084,0.0008660554885864258,2.4378765374422073e-05,-0.00010563060641288757,0.000323303509503603,-26.45600128173828,38.89765167236328,9.871612548828125,2
3.2887306250049733,3.2887317083368544,3.2885854583291803,-0.00022576190531253815,-0.002394437789916992,0.0007752771489322186,0.00043588830158114433,0.0002725827507674694,0.0012469165958464146,-26.516677856445312,38.96239471435547,9.998306274414062,2
3.298591375001706,3.2985915833342005,3.2984453333338024,-0.0002528950572013855,-0.0017833113670349121,0.00028765201568603516,0.0032625673338770866,0.0028912685811519623,0.0015571746043860912,-26.460899353027344,39.073368072509766,10.2984619140625,2
3.308948166668415,3.308949083337211,3.3088027499979944,0.0004793386906385422,-0.0017981529235839844,0.0005242228507995605,-0.003662585746496916,0.0009903809987008572,-0.0008037947118282318,-26.507644653320312,39.28141784667969,10.307136535644531,2
3.318960374999733,3.318960833334131,3.3188145416643238,-0.00019056536257266998,-0.0015391111373901367,-0.00020253704860806465,-0.00097945099696517,0.0005288552492856979,-0.0009372197091579437,-26.55530548095703,39.173912048339844,10.250213623046875,2
3.3291425833376707,3.3291432916666963,3.328996999996889,-0.0006220284849405289,-0.0012491941452026367,0.00037860870361328125,0.00044140545651316643,-0.0003403923474252224,-0.0012656431645154953,-26.753982543945312,39.20611572265625,10.027595520019531,2
3.3390556250014924,3.3390561250052997,3.338909791666083,-0.00010446831583976746,-0.001539468765258789,0.00031691836193203926,0.002537046791985631,-2.747122198343277e-05,0.0005871178582310677,-26.74603271484375,39.20055389404297,9.833816528320312,2
3.349358041668893,3.349359291671135,3.349212916662509,0.0002984199672937393,-0.002256155014038086,0.0005364422686398029,-0.0008819778449833393,0.0016284449957311153,0.0016227802261710167,-26.46379852294922,39.233455657958984,10.011863708496094,2
3.3594029166706605,3.3594042916665785,3.359257958334638,0.00043480098247528076,-0.001462399959564209,0.0003916029818356037,-0.0005615991540253162,-0.0003657299093902111,4.965066909790039e-05,-26.401901245117188,39.23964309692383,10.075912475585938,2
3.3693406250022235,3.369345458333555,3.369199083332205,-7.992610335350037e-05,-0.002286672592163086,-0.0004671812057495117,-0.0024259844794869423,-0.0010573659092187881,-0.0008382415398955345,-26.6124267578125,39.09723663330078,10.035263061523438,2
3.379555708335829,3.3795568333371193,3.3794104583284934,0.0005443263798952103,-0.0020273923873901367,0.0006793737411499023,-0.0010547228157520294,-0.0006552287377417088,-0.002640669234097004,-26.77313995361328,39.124176025390625,9.713615417480469,2
3.389535333335516,3.3895360416718177,3.389389708332601,4.705600440502167e-05,-0.0016766786575317383,0.0005640983581542969,0.00079360231757164,0.00026574917137622833,0.0009577376767992973,-26.82818603515625,39.30160903930664,9.706558227539062,2
3.3997305000011693,3.3997357500047656,3.399589416665549,0.0005398821085691452,-0.002302229404449463,0.0008955593220889568,0.0036722130607813597,0.0005831983871757984,-0.0019243350252509117,-26.546630859375,39.36715316772461,9.664207458496094,2
3.409677208335779,3.4096782916676602,3.4095319166663103,-0.0001932736486196518,-0.0017527937889099121,-9.244680404663086e-05,-0.0003677317872643471,8.361740037798882e-05,0.002032375428825617,-26.680809020996094,39.237205505371094,9.842231750488281,2
3.4197700416698353,3.419771208333259,3.4196248750013183,1.8386170268058777e-05,-0.002180039882659912,0.00042557716369628906,0.0003976607695221901,-0.0017584911547601223,-0.0018297405913472176,-26.38928985595703,38.96525573730469,9.831077575683594,2
3.429715333339118,3.4297158750050585,3.4295696249973844,-0.00037482939660549164,-0.0010966062545776367,-0.000605881679803133,-0.00043946411460638046,0.0006016879342496395,0.0006670919246971607,-26.42853546142578,38.93973922729492,9.871528625488281,2
3.4396661250066245,3.439666666672565,3.439520416664891,0.0006664060056209564,-0.0015851259231567383,0.00037974119186401367,-0.001404061447829008,-0.0012313658371567726,-0.0006029698997735977,-26.47748565673828,39.15801239013672,9.781539916992188,2
3.4500564166664844,3.450057125002786,3.4499108333329787,0.0006274990737438202,-0.0010967850685119629,0.0009384755976498127,0.0014125043526291847,0.0016920650377869606,-0.00022171251475811005,-26.614028930664062,39.224327087402344,9.753341674804688,2
3.4600825416709995,3.460083041667531,3.4599367916671326,-0.00033384375274181366,-0.0013409852981567383,0.001749694813042879,-0.0009715575724840164,-0.0017966758459806442,-0.0010422328487038612,-26.478561401367188,39.106903076171875,9.80902099609375,2
3.4701152083362103,3.4701157083400176,3.4699694583323435,-0.00033514760434627533,-0.0024701952934265137,0.0014668107032775879,-4.922458902001381e-05,-3.70941124856472e-05,-0.00010413490235805511,-26.26459503173828,39.12150192260742,9.65606689453125,2
3.4803353333336418,3.480336416672799,3.480190041664173,-0.00015066005289554596,-0.0027143359184265137,-0.00024056388065218925,-5.6681688874959946e-05,0.0027621546760201454,0.00047510256990790367,-26.258621215820312,39.153831481933594,9.481163024902344,2
3.4904111249998095,3.490412583334546,3.490266208333196,0.00010478310286998749,-0.0027143359184265137,0.0003739004023373127,-0.0003082561306655407,0.0001647667959332466,0.0008709081448614597,-26.329872131347656,39.135536193847656,9.226539611816406,2
3.500293958335533,3.500294750003377,3.5001484583335696,0.0006447173655033112,-0.0019207000732421875,0.000429034698754549,0.0007924283854663372,-8.610263466835022e-05,0.0004706350155174732,-26.564056396484375,39.32951354980469,9.5797119140625,2
3.511338625001372,3.5113397916720714,3.5111934166634455,0.00012328848242759705,-0.002012312412261963,-0.0003820657730102539,0.0005496502853929996,0.0004993039183318615,-0.00010468252003192902,-26.576805114746094,39.311279296875,9.62701416015625,2
3.5204767916729907,3.5204774166704738,3.520331083331257,-0.00044499896466732025,-0.0022873282432556152,0.00030815601348876953,0.0011440678499639034,0.0015485892072319984,-0.0031422842293977737,-26.55059814453125,39.10214614868164,9.671707153320312,2
3.530857541671139,3.530858708334563,3.530712333333213,-0.0002024620771408081,-0.0026382803916931152,-0.0006105299107730389,-0.00014838902279734612,0.0003617210313677788,-0.0009433990344405174,-26.43425750732422,39.10903549194336,9.874053955078125,2
3.540717208335991,3.5407178750028834,3.5405715416636667,9.078532457351685e-06,-0.0019819140434265137,0.0006572604179382324,-0.001287689432501793,-2.257293090224266e-05,-0.000833144411444664,-26.415298461914062,39.072998046875,9.607017517089844,2
3.550733958334604,3.550734916672809,3.5505886249957257,0.00047954730689525604,-0.0019362568855285645,0.000979423988610506,-0.002869187854230404,-0.0010628909803926945,0.0005409205332398415,-26.618568420410156,39.1201286315918,9.597518920898438,2
3.560766958333261,3.5607677083389717,3.5606214583312976,-0.0005722232162952423,-0.0015547871589660645,0.0006890292279422283,1.0488089174032211e-05,0.002618663012981415,-0.0012455275282263756,-26.76892852783203,39.05474853515625,9.931167602539062,2
3.57076879167289,3.570769375000964,3.5706230833311565,-9.970739483833313e-06,-0.0012344121932983398,-0.0006281142123043537,-0.0015021148137748241,-0.0012849122285842896,0.0005330643616616726,-26.545501708984375,38.99287033081055,9.538520812988281,2
3.581149166668183,3.581153583334526,3.581007333334128,-9.512528777122498e-06,-0.0023789405822753906,0.000759779941290617,-0.004035580437630415,0.0018357792869210243,-0.0002682805061340332,-26.472900390625,39.1053352355957,9.610786437988281,2
3.5912978750056936,3.591298708335671,3.5911523749964545,0.0006464030593633652,-0.0023332834243774414,0.0007222290150821209,0.00017274124547839165,-0.0017933053895831108,-0.0005745645612478256,-26.243606567382812,38.92192840576172,9.730842590332031,2
3.6011357916722773,3.601140625003609,3.6009943333338015,-0.0007615350186824799,-0.0010668635368347168,-4.369020462036133e-05,-0.00035483110696077347,-0.0017749299295246601,-0.0021170666441321373,-26.272781372070312,39.149166107177734,9.923065185546875,2
3.6112107083390583,3.6112113750059507,3.6110651249982766,-0.0007327590137720108,-0.0011739730834960938,0.0010890956036746502,0.00031529227271676064,0.0012206831015646458,-0.0015722298994660378,-26.405616760253906,39.215084075927734,9.821174621582031,2
3.6212973750007222,3.62129841667047,3.6211520833312534,-0.0007672831416130066,-0.0011130571365356445,-0.00023800181224942207,-0.0013055074959993362,0.002713384572416544,-0.0006734123453497887,-26.211746215820312,39.244205474853516,9.747932434082031,2
3.6313143750012387,3.631315333339444,3.6311690000002272,-0.0006064977496862411,-0.0007619857788085938,-0.00046956585720181465,-0.0024895723909139633,0.00025667669251561165,0.0025661299005150795,-26.299705505371094,39.176429748535156,9.890731811523438,2
3.641322041672538,3.6413227500015637,3.6411765000011656,-0.0005069300532341003,-0.0018448233604431152,-0.0006599430926144123,0.002631420036777854,-0.00121285580098629,0.0005788789130747318,-26.28924560546875,39.05179214477539,9.684967041015625,2
3.651409000005515,3.6514100000058534,3.6512637499981793,-0.0003552418202161789,-0.0022721290588378906,-0.00035184668377041817,-0.00033485423773527145,-0.0006880476139485836,-0.002081276848912239,-26.323326110839844,39.24342346191406,9.715835571289062,2
3.6614148750013555,3.661415541668248,3.6612692499984405,-7.982179522514343e-05,-0.0010821819305419922,-0.0001945500262081623,0.0005980508867651224,-0.0012606275267899036,-0.002915378659963608,-26.45954132080078,39.09037399291992,9.643569946289062,2
3.6718597916697036,3.671861208335031,3.671714833333681,0.0005206316709518433,-0.0019521117210388184,-6.026076152920723e-05,-0.0011340109631419182,0.0006645796820521355,0.00032317033037543297,-26.566162109375,39.13484191894531,9.126861572265625,2
3.681726458336925,3.6817272500047693,3.681580958334962,-0.0003580935299396515,-0.00187605619430542,0.0004936452023684978,0.00037919729948043823,-0.00233200890943408,-0.0008315760642290115,-26.544265747070312,39.08990478515625,9.571739196777344,2
3.691702375006571,3.691703166667139,3.691556916666741,-0.0005470626056194305,-0.0014031529426574707,-0.00047701550647616386,-0.00014338316395878792,0.00014716805890202522,-0.0020356541499495506,-26.504684448242188,39.062400817871094,9.317459106445312,2
3.701690541667631,3.7016908333389438,3.7015445833312697,-0.0003952048718929291,-0.001250922679901123,-6.240606307983398e-05,-0.0005969195626676083,0.0007620919495820999,-0.00287481676787138,-26.725189208984375,38.935787200927734,9.619110107421875,2
3.71204583333747,3.712046458334953,3.7119001249957364,0.00035362131893634796,-0.0013885498046875,0.0011154413223266602,0.0007171493489295244,0.0008114269003272057,0.0012535625137388706,-26.653671264648438,39.080726623535156,9.764114379882812,2
3.7218740833341144,3.7218742916666088,3.7217280416662106,0.00023208186030387878,-0.001953125,-0.0002721548080444336,0.0016788169741630554,-0.00014944188296794891,0.00022718030959367752,-26.716468811035156,39.126922607421875,9.880699157714844,2
3.7321443333348725,3.732145166672126,3.7319988749950426,-0.00018180347979068756,-0.0020447373390197754,0.000918328296393156,-0.002239885739982128,0.0013906997628509998,-0.0002650683745741844,-26.446556091308594,39.03446960449219,9.7958984375,2
3.7421842500043567,3.742185041672201,3.7420387083329842,0.00016144104301929474,-0.0019683241844177246,0.0008619423024356365,0.000636594370007515,0.0019166739657521248,-0.0009761322289705276,-26.51361083984375,38.938140869140625,9.871414184570312,2
3.7524245000022347,3.7524284583341796,3.752282124994963,-0.00010267645120620728,-0.0017242431640625,0.0003942246548831463,0.001659519039094448,-0.0012204069644212723,-0.0008135335519909859,-26.63427734375,38.99085998535156,9.441192626953125,2
3.762478833334171,3.762480000004871,3.762333624996245,0.0003966018557548523,-0.0010222792625427246,-0.00013267993927001953,0.0009649666026234627,-0.00022092275321483612,0.0008940850384533405,-26.437454223632812,39.15892791748047,9.20404052734375,2
3.772621625001193,3.772622374999628,3.7724760416676872,-0.00042013078927993774,-0.0017393231391906738,0.00010699126869440079,0.0002667885273694992,0.0005043158307671547,0.0018846821039915085,-26.43146514892578,39.20225524902344,9.289382934570312,2
3.7826470833388157,3.7826482500022394,3.7825018750008894,-0.0009027272462844849,-0.002151191234588623,0.0012161736376583576,-0.0010315021499991417,-0.000642707571387291,6.654206663370132e-05,-26.63825225830078,39.16215515136719,9.134078979492188,2
3.792696791671915,3.7926977916722535,3.7925514166636276,-0.001220734789967537,-0.0013427734375,0.0005648136138916016,-0.001374133862555027,-0.0010287165641784668,-0.0015773065388202667,-26.433212280273438,39.135501861572266,9.229682922363281,2
3.802786666667089,3.8027876666674274,3.8026412916660774,-0.0011878162622451782,-0.001755058765411377,-0.0002522468566894531,0.0017641354352235794,0.0018610795959830284,-0.0014276374131441116,-26.732582092285156,38.96669006347656,9.758872985839844,2
3.812820750004903,3.8128215833348804,3.812675291665073,-0.00021502375602722168,-0.0021213293075561523,0.0005048513412475586,0.000451080733910203,-0.000870327465236187,0.0002643815241754055,-26.668838500976562,38.929298400878906,9.724456787109375,2
3.82281000000512,3.8228111666685436,3.822664874998736,-0.0002549421042203903,-0.0013124346733093262,0.0007116198539733887,0.00034721754491329193,2.923421561717987e-06,-0.0009071435779333115,-26.668716430664062,39.16883850097656,9.68280029296875,2
3.8328239583352115,3.832824333338067,3.832678083330393,0.00029059872031211853,-0.0018312335014343262,0.0001786351203918457,0.0036369706504046917,-0.0018032579682767391,-0.0017757946625351906,-26.78221893310547,38.93449783325195,9.667091369628906,2
3.8431130416720407,3.8431137916704756,3.8429675000006682,6.433576345443726e-05,-0.0019230246543884277,3.159511834383011e-06,-0.0011087823659181595,-0.000490319449454546,-0.002292448654770851,-26.795249938964844,39.251216888427734,9.307228088378906,2
3.853280499999528,3.853281125004287,3.8531347916650702,-0.00022889114916324615,-0.001923203468322754,9.298324584960938e-06,-0.0008181747980415821,-0.00014301901683211327,0.0003061988390982151,-26.536720275878906,38.999786376953125,9.170478820800781,2
3.8631526666722493,3.863153041667829,3.8630067499980214,-4.591606557369232e-05,-0.001602470874786377,-0.00010198354721069336,-0.0014307019300758839,0.00043648527935147285,0.0020079584792256355,-26.531410217285156,38.90742111206055,9.510986328125,2
3.8731962083329563,3.8731971250017523,3.873050833331945,-3.6619603633880615e-05,-0.0012818574905395508,0.0002143383026123047,0.004304632544517517,-0.00011199014261364937,-0.00045839790254831314,-26.771156311035156,38.9022102355957,9.365554809570312,2
3.8833159583373345,3.8833167083357694,3.8831703749965527,-8.904561400413513e-05,-0.002105891704559326,-0.0005038375966250896,-7.557682693004608e-06,0.0013010832481086254,-0.0014589475467801094,-26.534461975097656,39.11066436767578,9.291862487792969,2
3.893368458338955,3.8933693333383417,3.893222999999125,-0.00034864433109760284,-0.0018616914749145508,-5.1081180572509766e-05,0.0015586204826831818,-0.0008586249314248562,-0.00048721954226493835,-26.350120544433594,38.96803665161133,9.534584045410156,2
3.903615916671697,3.903616958334169,3.903470583332819,-0.0003508031368255615,-0.0015561580657958984,0.0003504753112792969,-0.002250499092042446,0.0005581770092248917,0.0010036183521151543,-26.467559814453125,38.782466888427734,9.479270935058594,2
3.9136375416710507,3.91363850000198,3.91349212500063,0.0004463605582714081,-0.0024408698081970215,0.00038623809814453125,-0.002018251456320286,-0.0005159000866115093,-0.0005768872797489166,-26.484054565429688,39.042198181152344,9.574638366699219,2
3.9236391666709096,3.9236400416702963,3.9234936666616704,-0.0001284237951040268,-0.002486884593963623,0.0003057722933590412,-0.0009444649331271648,0.0015696212649345398,-0.0014842264354228973,-26.45403289794922,38.971397399902344,9.538314819335938,2
3.9344676666732994,3.9344693750026636,3.9343230000013136,0.00029848888516426086,-0.0010830163955688477,0.0010933876037597656,2.9316172003746033e-05,-2.2386666387319565e-05,-5.3309835493564606e-05,-26.514793395996094,39.0078010559082,9.333610534667969,2
3.943643416670966,3.9436439583369065,3.943497666667099,0.0008480697870254517,-0.0010372400283813477,-0.0003057126887142658,0.001891398336738348,0.0012727086432278156,0.0025115804746747017,-26.527420043945312,38.90663528442383,9.285232543945312,2
3.9539195833349368,3.95392041667219,3.953774124995107,-0.00048522092401981354,-0.0020139217376708984,0.0003402233123779297,-0.0007422072812914848,-0.002269252436235547,0.0001854579895734787,-26.44739532470703,38.791595458984375,9.403221130371094,2
3.963881375006167,3.9638823750065058,3.9637361249988317,-0.00022963061928749084,-0.0023802518844604492,0.00129282521083951,0.0003414326347410679,3.3849384635686874e-05,-0.0010614339262247086,-26.36469268798828,38.84123611450195,9.504165649414062,2
3.973772541670769,3.973772875004215,3.973626624996541,-0.0004557464271783829,-0.0024720430374145508,0.00013059377670288086,-0.0004988489672541618,-0.0012319637462496758,-0.0013230610638856888,-26.187393188476562,39.11940002441406,9.318077087402344,2
3.9840960416695452,3.98409679166798,3.9839504999981727,-0.0009027328342199326,-0.002197861671447754,-0.00036573363468050957,0.002059916267171502,-0.0010545975528657436,-0.0007688570767641068,-26.280258178710938,39.21571731567383,9.485389709472656,2
3.9942751666676486,3.994276000004902,3.9941297083350946,-0.00016393698751926422,-0.0023201704025268555,-0.0007073879241943359,-0.0035339128226041794,0.00023319432511925697,0.002572400029748678,-26.488929748535156,39.096343994140625,9.38836669921875,2
4.005825416672451,4.0058259583383915,4.005679708330717,-2.1960586309432983e-05,-0.00209122896194458,5.489541217684746e-05,0.002267783973366022,-0.0008323364891111851,-0.00010514166206121445,-26.37176513671875,39.11822509765625,9.196311950683594,2
4.014315000000352,4.014315708336653,4.0141693749974365,9.937584400177002e-05,-0.002533257007598877,-0.000604510772973299,0.0008050790056586266,-0.0004320940934121609,0.0016668541356921196,-26.45317840576172,39.14070510864258,8.976455688476562,2
4.024505416666216,4.024506708337867,4.024360333329241,0.0009350907057523727,-0.0020908713340759277,0.0006325244903564453,-0.00039840349927544594,0.0011596772819757462,0.0011033290065824986,-26.585220336914062,39.16880416870117,8.981582641601562,2
4.035764291671512,4.035765916669334,4.035619541667984,0.0007169675081968307,-0.0013738274574279785,4.1961669921875e-05,-0.0019137198105454445,0.0013016266748309135,1.4400109648704529e-05,-26.68543243408203,39.324363708496094,9.408157348632812,2
4.044585708339582,4.0445863750064746,4.044440083329391,-0.0005219299346208572,-0.0018465518951416016,0.00022530602291226387,0.00012200046330690384,-0.0004992028698325157,0.0018671611323952675,-26.495140075683594,39.034358978271484,9.293701171875,2
4.054807583335787,4.05480879166862,4.054662499998813,-0.0006485655903816223,-0.0020751953125,0.00018095923587679863,0.002453835681080818,-0.00012736162170767784,9.924452751874924e-05,-26.732337951660156,38.9173469543457,9.1661376953125,2
4.06486016666895,4.064860708334891,4.064714416665083,0.0005552470684051514,-0.0012209415435791016,-0.0003877882845699787,0.0023888545110821724,-0.0003896825946867466,-0.0018081115558743477,-26.520660400390625,39.15765380859375,9.079475402832031,2
4.0747739166690735,4.074774541666557,4.074628208334616,-0.0002629142254590988,-0.0020755529403686523,-0.0002351999282836914,0.001767067238688469,0.00283352704718709,-0.002234905958175659,-26.419273376464844,39.31245422363281,8.780921936035156,2
4.084967333335953,4.084968541668786,4.0848222083295695,-0.0014754608273506165,-0.002350330352783203,0.00047594355419278145,-0.0006931610405445099,-0.002219021786004305,0.001241318415850401,-26.462692260742188,39.115413665771484,9.212684631347656,2
4.095174833339115,4.095175750000635,4.0950294166614185,0.00036118924617767334,-0.0019534826278686523,-0.00034230947494506836,0.0022173726465553045,0.002029106020927429,0.00028843944892287254,-26.424598693847656,39.08437728881836,9.276268005371094,2
4.105075750005199,4.105076375002682,4.104930041663465,-0.0007944554090499878,-0.0022585391998291016,0.0004684925079345703,0.002676767995581031,-0.003334766486659646,-0.0004860078915953636,-26.49640655517578,39.1567268371582,9.160629272460938,2
4.1151027500018245,4.11510370834003,4.114957416662946,-0.0001550484448671341,-0.001831352710723877,-0.00039708660915493965,-0.0007491470314562321,0.0011295964941382408,-0.0016404036432504654,-26.551284790039062,39.14244079589844,8.883537292480469,2
4.124951041667373,4.124952166668663,4.124805874998856,-0.0004717875272035599,-0.0012517571449279785,0.00027567194774746895,-0.0014058826491236687,-0.0004954645410180092,0.0026158601976931095,-26.489730834960938,39.13242721557617,9.021240234375,2
4.1350925833394285,4.135093041666551,4.134946791666152,1.1077150702476501e-05,-0.0013276934623718262,9.053945541381836e-05,0.0008846861310303211,-0.0010177367366850376,0.0021528033539652824,-26.452735900878906,39.33157730102539,9.306663513183594,2
4.145369750003738,4.145370541671582,4.145224291663908,0.000224236398935318,-0.0013121366500854492,-0.0007798075675964355,-0.0012905839830636978,0.0011593974195420742,0.00012800190597772598,-26.271949768066406,39.20497512817383,9.085914611816406,2
4.155379333336896,4.155380166666873,4.155233874997066,0.00026178546249866486,-0.002166450023651123,-0.00011205626651644707,-0.00012219836935400963,0.00069833779707551,-0.0003820294514298439,-26.361892700195312,39.33815383911133,9.076499938964844,2
4.1656498333395575,4.165650458337041,4.165504166667233,-0.0004169624298810959,-0.0016019940376281738,-0.0006883139722049236,0.0015510658267885447,0.0016051442362368107,0.0005745785310864449,-26.436447143554688,39.30781936645508,9.228836059570312,2
4.175452916671929,4.175453375006327,4.175307083329244,0.000571003183722496,-0.0017241835594177246,-0.00019419146701693535,0.0008483955170959234,0.0004903706721961498,0.0014198063872754574,-26.388397216796875,39.46811294555664,9.041252136230469,2
4.185641083335213,4.185641833333648,4.185495458332298,2.2724270820617676e-07,-0.001449286937713623,-0.0002440209500491619,0.0026023532263934612,0.000918340403586626,0.003160182386636734,-26.484214782714844,39.60150909423828,9.288833618164062,2
4.195835333339346,4.195836166669324,4.195689791667974,-0.00010879524052143097,-0.0022733211517333984,-0.0005764365196228027,-0.00023478176444768906,-0.0010195346549153328,-0.0004080589860677719,-26.637741088867188,39.49337387084961,9.075904846191406,2
4.205909958334814,4.205910625001707,4.20576429166249,-0.0007619485259056091,-0.0021821260452270508,-0.0004559159278869629,-0.0003980337642133236,-0.001204890664666891,-0.002637924626469612,-26.653785705566406,39.374298095703125,9.228103637695312,2
4.21599700000661,4.215998125000624,4.215851833330817,-3.596208989620209e-05,-0.001388847827911377,0.000709831714630127,0.0005628492217510939,0.00025240425020456314,-0.0010690046474337578,-26.53155517578125,39.26988220214844,9.514266967773438,2
4.225863041669072,4.22586350000347,4.225717249995796,0.00012514181435108185,-0.0023963451385498047,-0.00039249612018465996,-0.003642016090452671,0.0002287020906805992,-0.002900993451476097,-26.12183380126953,39.28154754638672,9.24664306640625,2
4.236172625001927,4.236173791672627,4.236027416664001,-0.00017645396292209625,-0.001725316047668457,0.0003104810602962971,-0.0015274109318852425,4.259869456291199e-05,0.0008898032829165459,-26.23957061767578,39.261322021484375,9.475303649902344,2
4.246107958337234,4.246108958337572,4.245962624998356,-0.0007612314075231552,-0.0018166303634643555,0.0006080865859985352,0.0026702634058892727,-0.0009574182331562042,-0.0018497910350561142,-26.43885040283203,39.41902160644531,9.306198120117188,2
4.2560680833339575,4.256069083334296,4.255922791664489,-0.0004608370363712311,-0.0019844770431518555,-0.0004881019704043865,-0.00036612898111343384,-0.00019632931798696518,-0.0017115380614995956,-26.499786376953125,39.28410720825195,9.307243347167969,2
4.266171500006749,4.266171875002328,4.266025624994654,-7.279962301254272e-05,-0.0019846558570861816,-0.00021833134815096855,0.0023217995185405016,0.0001709205098450184,0.001111412886530161,-26.37860870361328,39.21669387817383,9.435272216796875,2
4.276364958335762,4.276365458339569,4.276219166662486,-7.8616663813591e-05,-0.0015267133712768555,-3.5047996789216995e-05,0.00020951265469193459,0.0017604776658117771,0.001182575710117817,-26.294921875,39.17802047729492,9.215293884277344,2
4.28642204166681,4.286422875004064,4.286276583334256,7.082521915435791e-05,-0.0018620491027832031,0.000582993496209383,-0.0021865330636501312,-0.00042437948286533356,-0.0009801778942346573,-26.54583740234375,39.25052261352539,9.208839416503906,2
4.29691350000212,4.296914208338421,4.296767874999205,0.0004987642168998718,-0.0017250776290893555,0.0010359887965023518,-0.0019748294726014137,0.002339335158467293,-0.0018352046608924866,-26.496246337890625,39.50074005126953,9.05316162109375,2
4.3064658750008675,4.306466375004675,4.306320041665458,-0.0004787761718034744,-0.0013440847396850586,0.0005189185030758381,-0.0014664321206510067,0.0006713969632983208,-0.0004559531807899475,-26.471435546875,39.44051742553711,9.088264465332031,2
4.3167670000038925,4.316770541670849,4.316624208331632,-0.0011893343180418015,-0.00138932466506958,0.0006344323046505451,0.0006625084206461906,0.0023059891536831856,0.0029274560511112213,-26.40528106689453,39.068878173828125,9.257034301757812,2
4.32686466666928,4.326865666669619,4.326719291668269,-0.00028104521334171295,-0.0013434290885925293,0.0008779172785580158,0.0025693317875266075,0.0015296777710318565,0.0008722948841750622,-26.36206817626953,38.91948699951172,9.701187133789062,2
4.3367032916721655,4.336703958339058,4.3365576666619745,-0.00038489699363708496,-0.0020452141761779785,-0.00021403981372714043,-0.0004069204442203045,0.00019002379849553108,0.0005980669520795345,-26.407386779785156,39.08534622192383,9.23760986328125,2
4.346949375001714,4.346950375002052,4.346803958331293,-0.00010276399552822113,-0.0019690990447998047,0.000284374225884676,-0.003913504537194967,0.0007415642030537128,-0.001869085244834423,-26.636619567871094,39.212127685546875,9.155128479003906,2
4.35700316666771,4.357003833334602,4.356857499995385,-0.0002994909882545471,-0.0022899508476257324,0.00043958425521850586,5.096523091197014e-05,0.0018539074808359146,0.0005969945341348648,-26.52629852294922,39.24656295776367,9.398056030273438,2
4.367367583334271,4.367368791667104,4.367222416665754,-0.00044281408190727234,-0.0018929839134216309,0.0006200075149536133,-0.00043745851144194603,-6.276974454522133e-05,0.00217891251668334,-26.608192443847656,39.0882682800293,9.378814697265625,2
4.376978250002139,4.376979416672839,4.376833041664213,-0.0006256774067878723,-0.001999378204345703,-0.0006216168403625488,0.0022718769032508135,0.00045455386862158775,0.0009184079244732857,-26.646095275878906,39.17185974121094,9.310798645019531,2
4.38718675000564,4.387187708336569,4.3870414166667615,5.202926695346832e-05,-0.001633286476135254,-0.00039136456325650215,0.0013504230882972479,0.0011091590858995914,0.0006528906524181366,-26.714683532714844,39.23495864868164,9.652313232421875,2
4.397129541670438,4.397130166667921,4.396983916667523,0.00034284405410289764,-0.0024269819259643555,-0.00017088651657104492,-0.0006316588260233402,0.000513862818479538,-0.0017154598608613014,-26.69891357421875,39.319549560546875,9.537879943847656,2
4.407202375004999,4.4072068333334755,4.407060333331174,-0.001009967178106308,-0.002366304397583008,0.00017184065654873848,-0.004092969466000795,-0.00015352526679635048,0.0014584953896701336,-26.5423583984375,39.182918548583984,9.097915649414062,2
4.417375333337986,4.417376041667012,4.417229749997205,0.0003263913094997406,-0.001862645149230957,0.0001240973360836506,-0.0009058346040546894,-0.00016487715765833855,0.0009817848913371563,-26.698760986328125,39.36406707763672,8.986976623535156,2
4.427497583339573,4.427498541670502,4.427352250000695,2.7524307370185852e-05,-0.0015271902084350586,-0.000183760654181242,-0.00039290962740778923,-0.0006109564565122128,-0.0013183876872062683,-26.62421417236328,39.565521240234375,9.1072998046875,2
4.437502000000677,4.437502791668521,4.437356499998714,-7.005967199802399e-05,-0.001496732234954834,-0.0005778074264526367,0.0006411080248653889,-0.00013053510338068008,-0.00018314272165298462,-26.539886474609375,39.38289260864258,9.030998229980469,2
4.447789416670275,4.447790333339071,4.447643999999855,-9.503215551376343e-05,-0.0015884637832641602,0.0008408427238464355,0.0007934409659355879,0.00019836518913507462,0.0007119453512132168,-26.550270080566406,39.32209396362305,9.069000244140625,2
4.4577152083365945,4.4577161250053905,4.457569791666174,-0.0005629789084196091,-0.002122342586517334,0.0007579922676086426,0.0012838589027523994,2.8067268431186676e-05,-0.0006919726729393005,-26.621353149414062,39.30020523071289,9.087112426757812,2
4.467985541668895,4.4679862083357875,4.467839874996571,-0.00019458867609500885,-0.0024881362915039062,0.0012317299842834473,0.0005307169631123543,-3.4250784665346146e-05,0.001138152088969946,-26.743331909179688,39.49514389038086,9.042160034179688,2
4.477902875005384,4.477903458333458,4.477757125001517,-0.0005459077656269073,-0.001633763313293457,0.001072585117071867,0.0008822358213365078,0.0005525914020836353,-0.0012571970000863075,-26.73828125,39.581050872802734,8.945541381835938,2
4.48790629166615,4.487907166672812,4.487760791664186,-0.00026961788535118103,-0.0022135376930236816,0.00034058140590786934,-0.00044801319018006325,7.841736078262329e-07,-0.0012404192239046097,-26.608901977539062,39.55738067626953,9.385520935058594,2
4.49812820833904,4.498129375002463,4.497983000001113,7.481314241886139e-05,-0.001938939094543457,3.9935577660799026e-05,0.0004926868714392185,-0.00036912737414240837,0.0006829877384006977,-26.673690795898438,39.34537124633789,9.272468566894531,2
4.508172833338904,4.508173500005796,4.50802712499717,-0.0013024285435676575,-0.0020607709884643555,0.0007683639414608479,0.0008053418714553118,0.000635150820016861,0.0023101791739463806,-26.791946411132812,39.3369026184082,9.338615417480469,2
4.518074458334013,4.518075208339724,4.517928875000507,-0.00015579350292682648,-0.0023964643478393555,0.0007021431811153889,-0.0035053077153861523,-0.0018614181317389011,0.0003065476194024086,-26.759033203125,39.38276290893555,9.481796264648438,2
4.528198458334373,4.528199041669723,4.528052749999915,0.0002680886536836624,-0.0017405152320861816,0.00043958378955721855,0.0011059558019042015,0.0016709985211491585,-0.0008157091215252876,-26.61170196533203,39.184669494628906,9.479843139648438,2
4.538221666669415,4.538222208335355,4.538075958334957,-0.00038502179086208344,-0.0015881061553955078,0.0006531476974487305,-0.001426737755537033,-0.0008521275594830513,0.0006311601027846336,-26.506072998046875,39.337371826171875,9.232696533203125,2
4.5484292916662525,4.548429875001602,4.548283625001204,-0.0005385465919971466,-0.00174027681350708,-0.00018674135208129883,6.596418097615242e-05,-0.0009911442175507545,0.0009890887886285782,-26.705718994140625,39.21011734008789,9.653526306152344,2
4.558322083335952,4.558322458338807,4.558176166661724,-0.0003703515976667404,-0.0018163323402404785,0.0004000663757324219,0.00018010195344686508,-0.0013873698189854622,0.001384081318974495,-26.75305938720703,39.29014587402344,9.466659545898438,2
4.568763958333875,4.5687647916711285,4.568618458331912,-0.0007244739681482315,-0.0014194250106811523,0.00022876309230923653,0.0015465698670595884,0.0007359683513641357,7.167551666498184e-05,-26.81072235107422,39.32767105102539,9.44146728515625,2
4.5785746250039665,4.578575416671811,4.578429083332594,-0.0005769003182649612,-0.0012058615684509277,-0.000733494758605957,-0.00046470295637845993,-0.0006488091312348843,0.0006807995960116386,-27.099227905273438,39.365901947021484,9.002166748046875,2
4.588720416672004,4.588721166670439,4.588574791661813,-0.00010113231837749481,-0.0019992589950561523,-0.00044977618381381035,-8.919741958379745e-05,-0.0016235257498919964,0.0008770744316279888,-26.923919677734375,39.29751205444336,9.145538330078125,2
4.598990333339316,4.5989915000027395,4.598845166663523,0.0001867040991783142,-0.0019379258155822754,-0.000651299487799406,-2.869684249162674e-05,-0.0003730696626007557,0.0008326773531734943,-26.71593475341797,39.33907699584961,9.2322998046875,2
4.6089249166689115,4.608925708336756,4.60877933332813,0.0009244643151760101,-0.0014342665672302246,5.364418029785156e-07,2.4566426873207092e-05,-0.0012561739422380924,-0.0016485899686813354,-26.6689453125,39.2607421875,9.197967529296875,2
4.619069791668153,4.6190709583388525,4.618924583330227,0.000273384153842926,-0.0013582110404968262,0.0001264810562133789,-0.002663023304194212,0.002059413120150566,-0.0014904942363500595,-26.553115844726562,39.358009338378906,9.383102416992188,2
4.6290793333391775,4.629080375001649,4.628934000000299,-5.82672655582428e-05,-0.0016175508499145508,0.001658142078667879,5.260203033685684e-05,-0.0003933585248887539,0.0015889192000031471,-26.457916259765625,39.212379455566406,9.436172485351562,2
4.63923054166662,4.639231458335416,4.639085083334066,-0.0005428548902273178,-0.0013272762298583984,-0.0003782506100833416,2.4096574634313583e-05,0.002148114610463381,0.0011290553957223892,-26.468589782714844,39.28671646118164,9.397804260253906,2
4.649192333337851,4.649193208337238,4.649046874998021,-0.00024100393056869507,-0.0020749568939208984,0.0002752542495727539,4.655681550502777e-06,-0.002127857180312276,0.0007495549507439137,-26.87749481201172,39.272212982177734,9.157028198242188,2
4.659123041667044,4.659123833334888,4.65897758333449,0.0002169441431760788,-0.0016168951988220215,9.542657062411308e-05,-0.001828367356210947,-0.00026818178594112396,0.002069545444101095,-26.673194885253906,39.258750915527344,9.512870788574219,2
4.669153708338854,4.669154125003843,4.6690078749961685,-0.0001928284764289856,-0.0025629401206970215,0.001066803466528654,-0.0005577732808887959,-0.0006109308451414108,-0.0009531425312161446,-26.486671447753906,39.27635955810547,9.741142272949219,2
4.679408250005508,4.679409208336438,4.6792629583287635,-3.5742297768592834e-05,-0.002120673656463623,8.970499038696289e-05,0.002160748466849327,-0.000432813074439764,0.00028576282784342766,-26.48967742919922,39.45755386352539,9.17889404296875,2
4.689725375006674,4.689726458338555,4.689580124999338,-7.374025881290436e-05,-0.0012354850769042969,-5.4002273827791214e-05,0.0013705887831747532,-0.00020085182040929794,0.000444220844656229,-26.529403686523438,39.43294143676758,9.347557067871094,2
4.699770583334612,4.699800125003094,4.699653625000792,-0.00042229704558849335,-0.002120077610015869,-0.00037986086681485176,-0.00013892166316509247,-0.0008326307870447636,0.00183897465467453,-26.680381774902344,39.40949630737305,9.221298217773438,2
4.7095568333388655,4.709557666668843,4.709411333329626,0.00019568763673305511,-0.0022115111351013184,0.0008608107455074787,0.002420908771455288,-0.002131188288331032,-0.0009408332407474518,-26.514854431152344,39.171897888183594,9.408584594726562,2
4.719825166670489,4.719826333333913,4.719679999994696,-0.0007916074246168137,-0.0007621645927429199,0.0011914968490600586,-0.0022029555402696133,-0.0006933845579624176,-0.0005391845479607582,-26.622970581054688,39.311798095703125,9.680870056152344,2
4.729826750000939,4.729827583338192,4.729681291668385,0.0005433391779661179,-0.0005639195442199707,-0.00021779537200927734,0.000681514386087656,0.0025061368942260742,-0.0008776718750596046,-26.545326232910156,39.157493591308594,9.747726440429688,2
4.739899708336452,4.739900416672754,4.739754041664128,-0.0005373116582632065,-0.0016930699348449707,-3.248453140258789e-05,-0.0012006168253719807,-0.0012465883046388626,0.0019241604022681713,-26.68779754638672,39.287086486816406,9.269760131835938,2
4.749919000001682,4.749919916670478,4.7497735416618525,-0.00021314434707164764,-0.00242537260055542,0.00016075372695922852,0.0015783915296196938,-0.00229134620167315,0.00021387822926044464,-26.624664306640625,39.28691101074219,9.418052673339844,2
4.760043708338344,4.760044500006188,4.759898083328153,0.00013246573507785797,-0.0017082691192626953,0.001425623893737793,0.00117207458242774,-0.0008694864809513092,-0.0006904192268848419,-26.385459899902344,39.20017623901367,9.202529907226562,2
4.770131583332841,4.770132666671998,4.769986333332781,-0.0007822606712579727,-0.0021353960037231445,0.0009753704071044922,0.0006442361045628786,0.0015252279117703438,0.0018180124461650848,-26.73346710205078,39.3137092590332,9.356163024902344,2
4.78017658333556,4.780177416672814,4.78003112499573,-6.530061364173889e-05,-0.0021808743476867676,-0.00023603485897183418,0.0015136315487325191,0.0005159806460142136,0.002025457564741373,-26.586631774902344,39.25611877441406,9.148887634277344,2
4.790251500002341,4.790252541672089,4.790106291664415,-6.25811517238617e-05,-0.0010055303573608398,-0.00023424671962857246,0.0017392013687640429,0.0002525937743484974,0.002043567132204771,-26.608917236328125,39.206478118896484,9.525955200195312,2
4.80019600000378,4.800196375006635,4.800050124998961,-0.00026402808725833893,-0.0014786124229431152,-0.0005379314534366131,-0.0019955579191446304,-0.0016020089387893677,-0.0010129772126674652,-26.516319274902344,39.273216247558594,9.526748657226562,2
4.810258833334956,4.810259208337811,4.810112958330137,0.0006247349083423615,-0.0016620159149169922,0.0005164151079952717,-0.0014932858757674694,-0.0008086534217000008,0.000754029955714941,-26.20123291015625,39.2886848449707,9.61297607421875,2
4.82046004167205,4.820460875002027,4.82031458333222,-0.0005149189382791519,-0.0015704631805419922,0.0006382470019161701,0.000868502538651228,-0.00022369669750332832,0.0013703983277082443,-26.456283569335938,39.029815673828125,9.601776123046875,2
4.8307987916705315,4.8307997083393275,4.830653416662244,-0.00030778534710407257,-0.001814424991607666,0.00051540182903409,3.3068936318159103e-05,0.0013206703588366508,-0.0005758395418524742,-26.525436401367188,39.0427131652832,9.595489501953125,2
4.840595833338739,4.84059633333527,4.8404499999960535,0.0001170281320810318,-0.0017076730728149414,-0.0004227752797305584,0.0026607951149344444,0.0019981013610959053,-0.00022769160568714142,-26.33208465576172,39.170467376708984,9.335090637207031,2
4.850755833336734,4.850756958338025,4.850610624998808,8.667260408401489e-05,-0.001829683780670166,0.00026297615841031075,0.00020083319395780563,0.0015003564767539501,7.031671702861786e-05,-26.382423400878906,39.52883529663086,9.361412048339844,2
4.860817250002583,4.860818291672331,4.860671958333114,5.5247917771339417e-05,-0.0017074942588806152,-0.00028502941131591797,0.0022614039480686188,0.0010377815924584866,-0.0005249539390206337,-26.375282287597656,39.31254196166992,9.499198913574219,2
