timestamp,t_global,t_local,accX,accY,accZ,gyroX,gyroY,gyroZ,magX,magY,magZ,accuracy
0.04169558333524037,0.04169666666712146,0.03436945833527716,0.00029244087636470795,-0.0011052489280700684,-0.00010603806003928185,-0.0020016315393149853,-0.0006545893847942352,0.0010590008459985256,-26.399314880371094,38.95634460449219,9.60858154296875,2
0.05157562500244239,0.05157583333493676,0.04424862500309246,-0.00019148364663124084,-0.0010743141174316406,0.00021326541900634766,0.0005454155616462231,-0.00047056470066308975,0.0012994841672480106,-26.384132385253906,38.96331024169922,9.526092529296875,2
0.06173487500200281,0.06173562500043772,0.054408458338002674,0.0002945922315120697,-0.0020508766174316406,0.0004819040186703205,0.0020447273273020983,-0.0008635995909571648,-0.0008265171200037003,-26.553543090820312,38.93496322631836,9.53179931640625,2
0.07192387500253972,0.07192458333156537,0.06459741666913033,0.0005646459758281708,-0.002386629581451416,-8.13598744571209e-05,-0.0021103364415466785,0.0025100926868617535,0.0008313003927469254,-26.441497802734375,39.10023880004883,9.473365783691406,2
0.08165149999695132,0.08165166666731238,0.07432445833546808,-0.00017024017870426178,-0.0027684569358825684,-0.0009801383130252361,0.0013175730127841234,0.0008001541718840599,-0.0012172162532806396,-26.44709014892578,39.27695083618164,9.592758178710938,2
0.09202416666812496,0.09202424999966752,0.08469704166782321,-0.00039215944707393646,-0.0022956132888793945,-0.0010515451431274414,-0.002136014401912689,0.00022597657516598701,-0.00021746568381786346,-26.461563110351562,39.231468200683594,9.475982666015625,2
0.10216349999973318,0.10216366666281829,0.09483645833824994,0.0005722809582948685,-0.0015177726745605469,-0.0008398294448852539,0.0017297302838414907,-0.0011408873833715916,-0.0022077951580286026,-26.611351013183594,39.08100128173828,9.693962097167969,2
0.11205850000260398,0.11205866666568909,0.10473145833384478,-0.00030794739723205566,-0.0017927289009094238,-0.001272022258490324,-0.0012695216573774815,-5.192076787352562e-05,-0.0014903396368026733,-26.569305419921875,39.255035400390625,9.881980895996094,2
0.12217079166293843,0.12217104166484205,0.1148438333402737,-0.0006660111248493195,-0.0020219087600708008,-0.00031310319900512695,0.002417127601802349,-0.0015623033978044987,0.001837585587054491,-26.5794677734375,39.26817321777344,9.281204223632812,2
0.13225358333147597,0.13225379166397033,0.12492658333940199,-0.0006631873548030853,-0.0019147992134094238,-0.00046515464782714844,0.0011585177853703499,0.000972759909927845,0.0021859267726540565,-26.60004425048828,39.14624786376953,9.7374267578125,2
0.14262233333283802,0.14262333333317656,0.13529608333919896,0.0005268193781375885,-0.0012278556823730469,-0.0004030466079711914,0.0021519458387047052,-0.00039114709943532944,-0.0016724364832043648,-26.62090301513672,39.2662467956543,9.520889282226562,2
0.15232824999839067,0.15232845833088504,0.1450012500063167,0.0001398194581270218,-0.0012433528900146484,0.000582277774810791,-0.0007474375888705254,-0.0011903615668416023,-0.00013792328536510468,-26.6612548828125,39.20526885986328,9.215034484863281,2
0.16270000000076834,0.1627006666676607,0.1553734166736831,0.0008497163653373718,-0.0024796724319458008,0.0009537935256958008,-0.00290920352563262,-0.0009819245897233486,0.0006202333606779575,-26.405372619628906,39.05267333984375,9.276893615722656,2
0.17278270833048737,0.1727832083342946,0.16545591667090775,-8.488819003105164e-05,-0.001411736011505127,1.7642974853515625e-05,0.0020096548832952976,-2.9311981052160263e-05,-0.0002474244683980942,-26.555419921875,39.32310104370117,9.404289245605469,2
0.1828214166671387,0.18282249999901978,0.17549520833563292,0.0002482030540704727,-0.0015338659286499023,0.0005375747568905354,0.000389262568205595,0.0013600438833236694,-6.959773600101471e-05,-26.407188415527344,39.209144592285156,9.609344482421875,2
0.19288366666296497,0.19288445833080914,0.18555720833683154,0.00041995197534561157,-0.001930534839630127,0.00026041315868496895,0.0025890334509313107,-0.002588891191408038,0.0007605091668665409,-26.761146545410156,39.34228515625,9.207405090332031,2
0.20285341666749446,0.20285449999937555,0.19552729166753124,0.0008020587265491486,-0.0022843480110168457,-1.4007091522216797e-05,-0.0008683768101036549,0.0008922894485294819,-0.0020335447043180466,-26.58995819091797,39.10858917236328,9.337821960449219,2
0.21315858333400683,0.2131592916630325,0.20583208333846414,0.0006988160312175751,-0.001399397850036621,0.0009219641797244549,0.0032054607290774584,0.0007532723248004913,-0.0007637497037649155,-26.667037963867188,39.20309066772461,9.582267761230469,2
0.22289770833594957,0.22289825000189012,0.21557104167004582,-0.0008859355002641678,-0.0015598535537719727,-0.0007174615748226643,-0.0024672849103808403,-1.7493031919002533e-05,0.0010788538493216038,-26.532005310058594,39.266849517822266,9.655693054199219,2
0.23335308333480498,0.2333538333332399,0.2260265833392623,2.566725015640259e-06,-0.0018961429595947266,-0.0008500218391418457,0.0023130893241614103,0.0008594859391450882,0.0003329026512801647,-26.310165405273438,39.49967956542969,9.729248046875,2
0.24322674999712035,0.24322795832995325,0.23590066667384235,0.0004226323217153549,-0.0018227696418762207,-0.0009632711298763752,0.001881475793197751,0.0014809328131377697,0.0009632064029574394,-26.463088989257812,39.077518463134766,9.550880432128906,2
0.2532367916646763,0.2532373333306168,0.24591004166722996,0.0004667360335588455,-0.0019140839576721191,0.00010716868564486504,0.0007818564772605896,-0.0018272455781698227,-0.003918368369340897,-26.244705200195312,39.295589447021484,9.892990112304688,2
0.2633416666649282,0.2633428333356278,0.25601554167224094,0.000425875186920166,-0.0014724135398864746,0.0004229545593261719,-0.001327544916421175,-0.0005571777001023293,-0.002185356803238392,-26.39629364013672,39.23811340332031,9.586837768554688,2
0.2737709583307151,0.27377279166830704,0.2664454166733776,-0.0002742018550634384,-0.0012447834014892578,0.0003619194030761719,0.0016397491563111544,0.0011365925893187523,0.0018101832829415798,-26.59264373779297,39.1588249206543,9.555488586425781,2
0.2835722916643135,0.2835729583312059,0.2762456250056857,0.00041566789150238037,-0.001351773738861084,-0.0003171558491885662,0.0029617506079375744,0.0014909058809280396,-6.118137389421463e-05,-26.633224487304688,39.1612548828125,9.304031372070312,2
0.2936470416680095,0.2936480833304813,0.28632075000496116,-0.0004618968814611435,-0.0016263723373413086,-0.0008167624473571777,-0.001956308726221323,-0.0016353786922991276,-0.003163231536746025,-26.64954376220703,39.188682556152344,9.496673583984375,2
0.30377087499800837,0.30377208333084127,0.2964447916674544,-0.00043061375617980957,-0.0012584924697875977,-4.565715789794922e-05,-0.0013935444876551628,-0.0008155605755746365,-0.0003354763612151146,-26.552345275878906,39.31657409667969,9.747100830078125,2
0.31402591666847,0.3140270416624844,0.3066997500063735,8.01626592874527e-05,-0.0029982924461364746,0.0004000067710876465,-0.0012862193398177624,-0.0006190193817019463,-0.0019964901730418205,-26.648948669433594,39.248355865478516,9.584693908691406,2
0.32395941666618455,0.32396016666461946,0.3166328750012326,-0.00011830218136310577,-0.0011224746704101562,-2.1516811102628708e-05,-0.0007063583470880985,-0.0006842175498604774,5.581090226769447e-05,-26.507110595703125,39.21651840209961,9.244163513183594,2
0.3337844166671857,0.3337852499971632,0.32645804167259485,-5.792640149593353e-05,-0.0011230111122131348,0.00046962546184659004,0.0014691781252622604,0.000506215263158083,0.0008070883341133595,-26.535972595214844,39.26691436767578,9.620346069335938,2
0.34406416666752193,0.344065249999403,0.3367380416675587,-0.00020966678857803345,-0.0027713775634765625,-0.0007621645927429199,-0.001813317183405161,0.0025430978275835514,-0.0020543085411190987,-26.346641540527344,39.30674743652344,9.543785095214844,2
0.35407454166852403,0.3540749166641035,0.34674770833953517,0.0009516812860965729,-0.0024962425231933594,-0.000907540787011385,-0.00033925753086805344,0.0004301457665860653,8.847052231431007e-05,-26.38958740234375,39.35372543334961,9.558868408203125,2
0.36428666666324716,0.36428770833299495,0.35696045833901735,0.00014741718769073486,-0.0018407106399536133,0.0002772212028503418,0.0008224484045058489,-0.0005249576643109322,-0.00033000577241182327,-26.476654052734375,39.1697883605957,9.386802673339844,2
0.37428295833524317,0.3742837499958114,0.3669565000018338,-6.759725511074066e-05,-0.0017029643058776855,-0.0003777146339416504,-0.0010633361525833607,0.0006252615712583065,-0.0004293415695428848,-26.451332092285156,39.159725189208984,9.567161560058594,2
0.3842501666658791,0.38425095833372325,0.37692370833974564,0.0004370491951704025,-0.0018247365951538086,-0.0008682007901370525,0.0013829332310706377,-0.0003573466092348099,-0.000313405878841877,-26.615196228027344,39.2130241394043,9.565071105957031,2
0.39446779166610213,0.3944689166673925,0.38714158333459636,7.572770118713379e-05,-0.0017938613891601562,0.0005823969841003418,0.0011634889524430037,0.00041257310658693314,-0.0003839796409010887,-26.423912048339844,39.195762634277344,9.394523620605469,2
0.40440987500187475,0.40441120833565947,0.3970839166722726,0.0005219485610723495,-0.0007562041282653809,-0.0006248354911804199,0.0003757826052606106,-0.0025428449735045433,-0.0021854136139154434,-26.394004821777344,39.131587982177734,9.190139770507812,2
0.41470429166656686,0.41470583333284594,0.4073784583379165,0.00040867552161216736,-0.0012289881706237793,-0.0007358193397521973,0.0014703420456498861,-0.0017167325131595135,0.002736640628427267,-26.472946166992188,39.21095657348633,9.325813293457031,2
0.42474824999953853,0.4247490416673827,0.4174217083345866,-0.0006234515458345413,-0.0021136999130249023,-0.0012104511260986328,-0.0002849828451871872,-0.0009990357793867588,-0.0013330187648534775,-26.503738403320312,39.4239616394043,9.499374389648438,2
0.43484829166845884,0.4348497083337861,0.42752237500099,-0.000441480427980423,-0.0012451410293579102,0.0001259446144104004,0.0006769509054720402,0.0016388250514864922,-0.002547154203057289,-26.468215942382812,39.33540725708008,9.380279541015625,2
0.4447634583339095,0.44476737499644514,0.437440041670925,-1.0019168257713318e-05,-0.0015504956245422363,0.000724494457244873,0.003894276451319456,-0.001039561815559864,0.000892931129783392,-26.11505889892578,39.22382736206055,9.341072082519531,2
0.45486437500221655,0.4548655416656402,0.44753825000225333,-0.0002697315067052841,-0.0019011497497558594,-0.0008096685633063316,-0.0002938108518719673,-0.000579634215682745,0.0010748249478638172,-26.600692749023438,39.215213775634766,9.509185791015625,2
0.4648135833340348,0.4648143333324697,0.4574870833384921,-0.0004175901412963867,-0.002496659755706787,1.353072002530098e-05,0.00018469570204615593,4.646182060241699e-05,0.0011435188353061676,-26.56671905517578,39.24546432495117,9.524665832519531,2
0.47498062499653315,0.4749817083356902,0.46765445833443664,0.0006887800991535187,-0.0017642378807067871,0.0007355809211730957,0.0007050770800560713,0.00046058325096964836,-0.000383804552257061,-26.748214721679688,39.05518341064453,9.727470397949219,2
0.4848798750026617,0.4848805000001448,0.4775532500061672,0.000976724550127983,-0.0013682842254638672,0.0005162353627383709,0.0003706994466483593,0.0007287478074431419,-0.0022271350026130676,-26.434967041015625,39.155948638916016,9.642623901367188,2
0.4951474583358504,0.4951484583361889,0.4878212500043446,4.6737492084503174e-05,-0.0008342266082763672,-0.00012093782424926758,-0.00047298986464738846,-0.0009466470219194889,0.0015835827216506004,-26.318458557128906,39.023658752441406,9.59002685546875,2
0.5053050416681799,0.5053060416685184,0.4979787916672649,-0.0007768981158733368,-0.0017341375350952148,-0.0013171429745852947,-0.0023331884294748306,-8.487096056342125e-05,0.0001192721538245678,-26.422874450683594,38.924869537353516,9.703224182128906,2
0.5154627916635945,0.5154634583304869,0.5081362083365093,0.0005141962319612503,-0.001886129379272461,0.0001761321909725666,0.0027001858688890934,-0.002037234138697386,0.0021131811663508415,-26.490394592285156,39.163387298583984,9.623138427734375,2
0.5254835416635615,0.5254843333314057,0.5181570000058855,-0.00028432346880435944,-0.0015194416046142578,-0.0008121132850646973,0.00042325956746935844,-0.00039167143404483795,-0.0008705500513315201,-26.46930694580078,39.410240173339844,9.526573181152344,2
0.5355820416662027,0.535583625001891,0.5282562500069616,-0.0006944872438907623,-0.001489102840423584,-0.0002751350402832031,0.00012711575254797935,-0.0020478912629187107,-0.0014854734763503075,-26.317733764648438,39.27412796020508,9.550628662109375,2
0.5469339166666032,0.5469347916659899,0.5396074583404697,-0.00015100650489330292,-0.00118333101272583,-0.0003154277801513672,0.002535032806918025,0.0014756903983652592,-0.0008254507556557655,-26.490859985351562,39.09239959716797,9.80767822265625,2
0.5555498333342257,0.5555502083298052,0.5482229583358276,9.679421782493591e-05,-0.002419590950012207,0.0004477500915527344,-0.0006857942789793015,0.0012384029105305672,-0.001064603216946125,-26.23150634765625,39.22975540161133,9.758567810058594,2
0.5657756666696514,0.5657770833349787,0.5584497916715918,0.0005352366715669632,-0.0022829771041870117,-0.0005511636845767498,-0.0008371053263545036,0.00047280779108405113,-0.002081066370010376,-26.34693145751953,39.11388397216797,10.011833190917969,2
0.5758481666634907,0.5758493749963236,0.5685220416708034,-0.00030181556940078735,-0.0019932985305786133,0.0007331972010433674,0.0004787626676261425,0.0007172860205173492,-0.0005838368088006973,-26.32605743408203,39.184730529785156,9.361572265625,2
0.5858158749979339,0.585816958329815,0.5784896250042948,-0.00044581852853298187,-0.0014897584915161133,0.000621795654296875,0.0010529444552958012,0.0016118069179356098,-0.0016406606882810593,-26.430519104003906,39.33735656738281,9.263130187988281,2
0.595850874997268,0.5958516250029788,0.5885243750017253,-6.552785634994507e-06,-0.0012917518615722656,0.0011839871294796467,-0.00027863634750247,-0.00014268327504396439,6.163213402032852e-05,-26.40618133544922,39.47748947143555,9.033355712890625,2
0.6059822500028531,0.6059832083337824,0.5986559583398048,-0.0003417897969484329,-0.001840829849243164,0.0005638599395751953,0.0013277584221214056,-0.00015858560800552368,0.0013518081977963448,-26.467437744140625,39.138423919677734,9.031654357910156,2
0.616180874996644,0.6161815416635363,0.608854333338968,0.00013370439410209656,-0.0017032027244567871,-0.0004661083221435547,0.001480357488617301,0.002058762591332197,-0.0003153309226036072,-26.469947814941406,39.15586471557617,9.393440246582031,2
0.6260183333361056,0.6260188750020461,0.6186916666702018,0.0012733042240142822,-0.0022678375244140625,0.0006363391876220703,-0.001171183306723833,0.0002799159847199917,-0.0008159438148140907,-26.47498321533203,39.226837158203125,9.271537780761719,2
0.636326874999213,0.6363274999966961,0.6290002500027185,0.0002785511314868927,-0.0019168853759765625,0.00011485861614346504,0.0007239219266921282,0.0016708848997950554,0.0015537370927631855,-26.51226806640625,39.22913360595703,9.655807495117188,2
0.6464180416660383,0.6464185833319789,0.639091291668592,0.0003139656037092209,-0.0010315179824829102,0.000569403637200594,0.0012179494369775057,-0.0010806666687130928,0.0006342888809740543,-26.229522705078125,39.0579833984375,9.4713134765625,2
0.6564644166646758,0.6564652500019292,0.6491379583385424,0.00033557601273059845,-0.001992642879486084,-0.00030940771102905273,-0.0014710440300405025,0.0017790356650948524,-0.0021844003349542618,-26.372108459472656,39.35160827636719,9.254501342773438,2
0.6666477916660369,0.6666495416648104,0.6593222083392902,0.0011241547763347626,-0.0022829174995422363,-0.00027692271396517754,0.00012729642912745476,-0.0007694549858570099,-0.003530719317495823,-26.37188720703125,39.0233039855957,9.612258911132812,2
0.6767276666651014,0.676728375001403,0.6694010416686069,-0.0008210316300392151,-0.0015050172805786133,0.00010532140731811523,0.002626140136271715,-0.00037078000605106354,-0.0026268428191542625,-26.324172973632812,38.99895477294922,9.598350524902344,2
0.686722666665446,0.6867233333323384,0.6793960416689515,0.00024165771901607513,-0.0017030835151672363,-0.0001080627553164959,-0.0016209552995860577,-0.0006718644872307777,-0.0002097124233841896,-26.410125732421875,39.19080352783203,9.701148986816406,2
0.6969127083357307,0.6969139166685636,0.6895865833357675,3.336556255817413e-05,-0.0019167065620422363,-0.0004101991653442383,-0.0005130800418555737,0.0005566515028476715,0.0004906994290649891,-26.513687133789062,39.24705123901367,9.855232238769531,2
0.7066809583338909,0.7066818333332776,0.6993545416698908,-0.0010894089937210083,-0.002131164073944092,0.00011306954547762871,0.0005314636509865522,-0.0015306775458157063,-0.0024742521345615387,-26.423812866210938,39.13077163696289,9.71002197265625,2
0.7169786250015022,0.7169792499989853,0.7096519583355985,0.00048567913472652435,-0.0017803311347961426,-0.00034666014835238457,0.0005556982941925526,0.0002832016907632351,-0.001350131817162037,-26.22052764892578,39.14415740966797,9.401481628417969,2
0.7268887083337177,0.7268895833331044,0.7195623333391268,-6.84596598148346e-05,-0.0008494853973388672,0.0008913283236324787,0.002122348640114069,0.0007991981692612171,0.0019739544950425625,-26.17901611328125,39.19783020019531,9.351173400878906,2
0.7368000416681753,0.7368107500005863,0.7294835000066087,-0.0004540737718343735,-0.0018410682678222656,5.698204040527344e-05,0.00013270089402794838,0.0018349015153944492,-0.0010926751419901848,-26.26384735107422,39.15575408935547,9.302955627441406,2
0.7469281666635652,0.7469285416664206,0.7396013333345763,-0.00015470199286937714,-0.0021163225173950195,0.0001348261721432209,-0.0035295034758746624,-0.0011052293702960014,-3.298744559288025e-05,-26.16302490234375,39.22859573364258,9.137016296386719,2
0.7572438749994035,0.7572445416662958,0.7499172916723182,0.00015706196427345276,-0.0021162033081054688,-0.0005020499229431152,-0.0002673971466720104,-0.0006101480685174465,-0.0007019741460680962,-26.166725158691406,39.311100006103516,9.124053955078125,2
0.7672407499994733,0.7672415416673175,0.7599142916733399,0.0005469582974910736,-0.0018268227577209473,-0.0005357260815799236,-0.00028156815096735954,-0.0013375487178564072,-0.0006890203803777695,-26.298500061035156,39.15100860595703,9.349655151367188,2
0.7774379583352129,0.7774388333345996,0.7701115416712128,0.0008170232176780701,-0.001704871654510498,-0.0010530357249081135,0.0025208760052919388,0.00042812712490558624,4.0153972804546356e-05,-26.330078125,39.234867095947266,9.27667236328125,2
0.7874570416679489,0.7874577083348413,0.7801304166714544,-0.00013798661530017853,-0.0015058517456054688,-0.0006077885627746582,0.0035918508656322956,0.00016580848023295403,-0.0014338251203298569,-26.326202392578125,39.349510192871094,9.159248352050781,2
0.7976180416662828,0.7976191666675732,0.7902918750041863,0.00034587085247039795,-0.001277148723602295,-0.00017595244571566582,0.001597143243998289,0.0007399856112897396,0.0006445059552788734,-26.234115600585938,39.19608688354492,9.478797912597656,2
0.8075630416642525,0.8075636249996023,0.8002363333362155,-0.0007495526224374771,-0.002131342887878418,-0.0005431170575320721,-0.0013384539633989334,-0.00022095395252108574,-0.0009874431416392326,-26.302627563476562,38.96719741821289,9.459251403808594,2
0.8175390416654409,0.8175395416692481,0.8102122500058613,9.369105100631714e-07,-0.002070009708404541,-0.0008211731910705566,0.0004924691747874022,-0.0003530466929078102,0.0030810674652457237,-26.382415771484375,39.07807540893555,9.784584045410156,2
0.8277481249970151,0.8277492916677147,0.8204219583349186,0.0008225422352552414,-0.002466440200805664,-0.0010216827504336834,-0.0005230479873716831,0.0006107818335294724,5.1322393119335175e-05,-26.32624053955078,39.33076858520508,9.648208618164062,2
0.8377409583335975,0.8377422916673822,0.8304150000039954,9.733438491821289e-05,-0.001917421817779541,-0.000178635586053133,0.0007653890643268824,0.0013716467656195164,-0.0006368383765220642,-26.556739807128906,39.17577362060547,9.534004211425781,2
0.8479042916660546,0.8479053333358024,0.8405780416724156,-0.00015022233128547668,-0.0025128722190856934,-0.0003161435015499592,0.00015097716823220253,-0.00041378941386938095,-0.0040723541751503944,-26.49603271484375,39.27873229980469,9.608009338378906,2
0.8578022083311225,0.8578026249961113,0.8504753750021337,0.00017219781875610352,-0.0019185543060302734,-0.0007652644999325275,-0.002631227020174265,-0.0003115241415798664,-0.0007740287110209465,-26.324050903320312,39.39398956298828,9.408882141113281,2
0.8680584166650078,0.8680594583347556,0.8607322083335021,1.2435019016265869e-05,-0.0015975236892700195,-0.0008594393730163574,0.0029195148963481188,-0.0011245659552514553,0.0029074717313051224,-26.371742248535156,39.33732604980469,9.579818725585938,2
0.8780957083363319,0.878096791668213,0.8707695833363687,0.00051930733025074,-0.0014296770095825195,-0.000657200813293457,-0.00030504073947668076,0.00029436638578772545,0.0003532338887453079,-26.41767120361328,39.34729766845703,9.774765014648438,2
0.887937375002366,0.8879377916673548,0.8806105833355105,-0.00023668445646762848,-0.001658797264099121,0.00015676068142056465,0.001996516715735197,0.001267939805984497,-0.004016650840640068,-26.389320373535156,39.48774337768555,9.367988586425781,2
0.898332416669291,0.8983330833361833,0.891005875004339,-0.0007946230471134186,-0.0011249780654907227,0.000973045825958252,2.5511253625154495e-05,0.0018764720298349857,-0.0013465657830238342,-26.148658752441406,39.23862838745117,9.324851989746094,2
0.9084537500020815,0.9084548749960959,0.9011276666715275,-0.0003154948353767395,-0.0011404752731323242,0.0008080597035586834,-0.001858928706496954,0.0008604438044130802,0.00258023664355278,-26.23455047607422,38.98986053466797,9.735786437988281,2
0.9183593749985448,0.9183599583338946,0.911032708339917,0.0003692544996738434,-0.0024067163467407227,0.00021708011627197266,-0.0012823543511331081,0.0009208978153765202,-0.0009559085592627525,-26.044189453125,39.16880798339844,9.861534118652344,2
0.9285630000013043,0.9285637916691485,0.9212364583363524,-0.00014248304069042206,-0.0015979409217834473,-0.0006204242818057537,-0.0025020805187523365,0.0010828077793121338,-6.573740392923355e-05,-26.212982177734375,38.958133697509766,9.682830810546875,2
0.9387459166682675,0.938746916668606,0.9314196250052191,-2.3543834686279297e-05,-0.0014455318450927734,0.00012159347534179688,-0.0010935347527265549,-0.00107648316770792,0.001964390743523836,-26.55669403076172,39.056640625,9.997634887695312,2
0.9487029166630236,0.9487036666687345,0.9413763333359384,-0.0005795788019895554,-0.0028034448623657227,0.00011724280193448067,-8.455291390419006e-05,0.0008648699149489403,-0.002112763933837414,-26.34217071533203,39.08391571044922,9.626472473144531,2
0.9589960416633403,0.9589972916655825,0.9516700000021956,-3.760121762752533e-05,-0.0012018084526062012,0.000382840633392334,-0.002771416213363409,0.0007610064931213856,-0.0020142272114753723,-26.50250244140625,39.091251373291016,9.405197143554688,2
0.9689172500002314,0.9689180416680756,0.9615907500046887,-0.00022605806589126587,-0.000652313232421875,0.000287473201751709,0.0005016042850911617,-0.00046375347301363945,0.0009703068062663078,-26.370025634765625,38.95438766479492,9.554176330566406,2
0.9791059999988647,0.979106958329794,0.9717796250042738,0.0005724094808101654,-0.0007131695747375488,-0.0006895060651004314,-0.0004651229828596115,0.0007298756390810013,-0.002151717431843281,-26.857498168945312,38.96327209472656,9.408920288085938,2
0.9890071249974426,0.9890077083327924,0.9816804166694055,-0.00047763995826244354,-0.0014759302139282227,-0.0007835030555725098,0.0006785434670746326,-0.001205594278872013,-0.000725066289305687,-26.60607147216797,38.878360748291016,9.547859191894531,2
0.9990323750025709,0.9990330833315966,0.991705833337619,3.106705844402313e-05,-0.0018728375434875488,-0.00040161656215786934,0.00109958928078413,-0.0015656533651053905,0.0010661762207746506,-26.629981994628906,38.98995590209961,9.389137268066406,2
1.0090605416626204,1.009061416669283,1.0017341666680295,0.0007229484617710114,-0.0017202496528625488,-1.3232696801424026e-05,-0.00040463777258992195,-0.0020867204293608665,0.0001406571827828884,-26.530250549316406,39.093467712402344,9.533683776855469,2
1.0189889583343756,1.0189892499984126,1.0116620416738442,-0.0003428049385547638,-0.001613318920135498,0.00011229468509554863,0.0016081794165074825,0.0013847099617123604,0.001858662348240614,-26.452308654785156,38.886444091796875,9.971107482910156,2
1.0293250416652882,1.029326083335036,1.021998791671649,0.00025961734354496,-0.0023154616355895996,-4.696846008300781e-05,-0.001009268220514059,0.00101569015532732,-0.001799258403480053,-26.498153686523438,38.83992385864258,9.565444946289062,2
1.039407874995959,1.0394082499988144,1.0320810000048368,-0.0003925822675228119,-0.0023462772369384766,0.0005017518997192383,-0.0024726754054427147,0.0002215355634689331,0.0012596477754414082,-26.514236450195312,39.00489044189453,9.642318725585938,2
1.049428041667852,1.04942850000225,1.0421012916704058,-0.0008217841386795044,-0.0011710524559020996,0.0011597280390560627,0.0011155344545841217,-0.0007175523787736893,0.0014030379243195057,-26.506500244140625,39.12340545654297,9.449729919433594,2
1.0594010416680248,1.0594026249964372,1.0520753750024596,-9.172223508358002e-05,-0.001964390277862549,0.0004722476005554199,-0.001069056335836649,0.0017927433364093304,0.002692807000130415,-26.345565795898438,39.24961471557617,9.80804443359375,2
1.0698538750002626,1.069855166664638,1.062527833339118,-0.0003771316260099411,-0.0012011528015136719,0.00057637644931674,-0.00015508756041526794,-0.002221552422270179,0.0009124572388827801,-26.340835571289062,39.201385498046875,9.783523559570312,2
1.079739333334146,1.0797402916650753,1.0724130416710977,0.000146595761179924,-0.0011400580406188965,0.0002180333249270916,-0.0005148807540535927,0.0003246958367526531,-0.000384502112865448,-26.377220153808594,39.23805618286133,9.611412048339844,2
1.0897112083330285,1.0897118749999208,1.0823845416671247,-0.00021663866937160492,-0.0021930932998657227,-1.2517441064119339e-05,0.0004215645603835583,-0.0003266725689172745,0.0003289110027253628,-26.292274475097656,39.270565032958984,9.41650390625,2
1.0998997499991674,1.099900916662591,1.0925735416676616,0.00019748136401176453,-0.0016742944717407227,-0.000482677947729826,0.0020482230465859175,0.0028757783584296703,-0.0008745715022087097,-26.290557861328125,39.036590576171875,9.750892639160156,2
1.1098002500002622,1.1098010416681063,1.1024737916668528,0.00020888075232505798,-0.0016897320747375488,-0.0005769724957644939,-0.000351030845195055,-0.0008048485033214092,0.000452948734164238,-26.614471435546875,39.01974105834961,9.505210876464844,2
1.1199983333353885,1.1199990000022808,1.1126716666694847,0.0011527761816978455,-0.0015069246292114258,-0.00044655753299593925,0.00011395709589123726,-0.0008075116202235222,-0.0032259421423077583,-26.47602081298828,38.907073974609375,9.488044738769531,2
1.1299739166643121,1.129974833333108,1.1226475833391305,0.0003266092389822006,-0.0012169480323791504,-0.00011324882507324219,-0.001080063171684742,0.0014575128443539143,-0.0012578144669532776,-26.520767211914062,39.00370788574219,9.315872192382812,2
1.1401060833304655,1.1401072083317558,1.1327799583377782,1.3431534171104431e-05,-0.0024833083152770996,-0.0006610755808651447,0.0005492588970810175,-0.0021260366775095463,0.0018927054479718208,-26.478073120117188,39.12698745727539,9.634315490722656,2
1.150118958335952,1.1501192499999888,1.1427920000060112,0.0007523577660322189,-0.0020101070404052734,-0.0007587671279907227,-0.0007756976410746574,0.000502211507409811,0.0007802238687872887,-26.4869384765625,39.036224365234375,9.47039794921875,2
1.160199083329644,1.1601995833334513,1.1528723333394737,0.0002968069165945053,-0.002086639404296875,-0.0006009931676089764,0.0003644013777375221,-0.0010070023126900196,-0.0010688090696930885,-26.59668731689453,39.10252380371094,9.527915954589844,2
1.1704529999988154,1.1704540833306964,1.1631267916673096,-3.725104033946991e-05,-0.001995384693145752,-0.00016868067905306816,0.0008306915406137705,-1.546880230307579e-05,0.0008557112887501717,-26.403778076171875,39.05032730102539,9.593917846679688,2
1.1804700833308743,1.180470499995863,1.1731432500018855,2.6091933250427246e-05,-0.001491844654083252,0.0006435513496398926,0.0005483964923769236,-0.0016053756698966026,0.0011699642054736614,-26.39270782470703,39.25557327270508,9.343124389648438,2
1.1906143333326327,1.1906155833348748,1.1832882500020787,0.00025136396288871765,-0.0017665624618530273,0.0007835035212337971,0.000567618990316987,-0.0007212203927338123,-0.0001646634191274643,-26.29399871826172,38.97559356689453,9.386985778808594,2
1.200654250002117,1.200655499997083,1.193328166671563,-7.048621773719788e-05,-0.0017670392990112305,5.1379669457674026e-05,-0.0007138941437005997,-0.0002495748922228813,-0.0022155633196234703,-26.334030151367188,39.251976013183594,9.453521728515625,2
1.210704375000205,1.210704999997688,1.2033777500037104,0.00035065412521362305,-0.002102792263031006,-0.0001423354260623455,0.0008427428547292948,5.3921714425086975e-05,-0.0009275451302528381,-26.301010131835938,38.97517013549805,9.5589599609375,2
1.2205701666680397,1.2205707083339803,1.2132434166705934,-0.00026772916316986084,-0.001187145709991455,0.000994205940514803,-0.0018686214461922646,0.0018068146891891956,-0.0002471078187227249,-26.373008728027344,39.18670654296875,9.28985595703125,2
1.2308096249980736,1.2308105833362788,1.223483291672892,6.212480366230011e-05,-0.0016908645629882812,0.0003961329348385334,0.0020874713081866503,0.00044146645814180374,-5.769636482000351e-05,-26.34307098388672,39.2393798828125,9.5235595703125,2
1.2410073333303444,1.2410085833325866,1.2336812083376572,-0.0004223659634590149,-0.0011418461799621582,-0.0005099177360534668,0.00047705788165330887,-0.0021692304871976376,0.0004003671929240227,-26.325050354003906,39.254295349121094,9.57757568359375,2
1.25102266666363,1.2510238333343295,1.2436965000015334,0.000235019251704216,-0.0016454458236694336,-0.00020670844241976738,-0.0015612435527145863,0.0011862139217555523,-0.0005658422596752644,-26.365707397460938,39.25772476196289,9.59942626953125,2
1.2609844166654511,1.2609852500027046,1.253658000001451,0.00043627433478832245,-0.002271294593811035,-0.0003596539609134197,-0.0009921258315443993,0.00035184528678655624,-0.003065218683332205,-26.45201873779297,39.10948944091797,8.874168395996094,2
1.2711109583324287,1.2711120000021765,1.2637847916703322,0.0005009081214666367,-0.0020731091499328613,-0.0006706714630126953,-0.0001848377287387848,-0.00020478619262576103,-0.000493211206048727,-26.325408935546875,39.13340759277344,9.088844299316406,2
1.2810275416632066,1.2810277916651103,1.273700583340542,-0.0009359214454889297,-0.0020880699157714844,-0.0002434845082461834,0.0015544728375971317,-0.0015880316495895386,0.003047727979719639,-26.402259826660156,38.94068145751953,9.296539306640625,2
1.2912935833301162,1.2912945833304548,1.2839673333364772,0.0008466970175504684,-0.0023017525672912598,-0.00045543862506747246,0.0014472464099526405,0.001337776891887188,-0.0006597321480512619,-26.37535858154297,39.04168701171875,9.851181030273438,2
1.3011598750017583,1.3011602499973378,1.2938330000033602,-0.00026154518127441406,-0.0016609430313110352,-0.0005609388463199139,-0.00029392819851636887,0.0038627199828624725,-0.0005793049931526184,-26.22771453857422,39.197792053222656,9.633590698242188,2
1.3116954166689538,1.3116964583314257,1.3043691666680388,-5.2716583013534546e-05,-0.001752614974975586,0.0010790829546749592,-0.0009541381150484085,-0.0005172677338123322,0.00040449388325214386,-26.063339233398438,39.13633346557617,9.578170776367188,2
1.3214198333298555,1.321420666667109,1.314093375003722,0.0006539393216371536,-0.001661062240600586,-0.0005754833109676838,0.000234164297580719,0.0007173735648393631,-3.865547478199005e-05,-26.269195556640625,39.16316223144531,9.463958740234375,2
1.3315952083357843,1.3315966250011115,1.3242692916683154,0.0004002656787633896,-0.0025309324264526367,-0.0007250308990478516,0.0005353784654289484,-0.0013593677431344986,0.00010067783296108246,-26.177902221679688,39.044498443603516,9.488845825195312,2
1.3417457499963348,1.3417465000020457,1.3344191666692495,0.00012999773025512695,-0.0022565722465515137,-0.0007765297777950764,0.0009226021356880665,-0.0003441707231104374,0.000796562060713768,-26.30657958984375,39.172088623046875,9.29412841796875,2
1.3517890833318233,1.351789791668125,1.3444624583353288,0.00042591243982315063,-0.00254666805267334,-0.0003904695622622967,-0.0009694527834653854,-0.0013469578698277473,-0.001935620792210102,-26.29778289794922,38.97884750366211,9.670326232910156,2
1.3617775416641962,1.3617786249960773,1.3544512500011479,-0.0007979292422533035,-0.0009140968322753906,0.000380098819732666,0.002331268973648548,0.001687181182205677,6.6231004893779755e-06,-26.299537658691406,39.23472595214844,9.466789245605469,2
1.371964999998454,1.3719656666653464,1.3646383333398262,-0.0003609694540500641,-0.0012955665588378906,0.00024586915969848633,-0.0007922900840640068,-0.0001909458078444004,2.863723784685135e-05,-26.156578063964844,39.017330169677734,9.292533874511719,2
1.3821116666658781,1.3821127916671685,1.374785416672239,-0.00016320869326591492,-0.0016309618949890137,0.0005428194999694824,-0.0012402338907122612,0.0004990790039300919,0.0026859394274652004,-26.086807250976562,38.94461441040039,9.5848388671875,2
1.3920248333306517,1.3920258333309903,1.3846985833370127,-0.00020661018788814545,-0.002317190170288086,0.0004916787147521973,2.6137568056583405e-06,0.0011615394614636898,0.000935522373765707,-26.270950317382812,39.16276168823242,9.613494873046875,2
1.4021454583344166,1.4021463333338033,1.3948190833398257,-0.00025635212659835815,-0.0016002058982849121,0.00015801144763827324,-0.00026822974905371666,0.0008898968808352947,0.0008556274697184563,-26.184112548828125,39.093814849853516,9.704185485839844,2
1.412115500002983,1.4121158333291532,1.404788625004585,-7.682293653488159e-05,-0.001950979232788086,-0.0002989168278872967,-0.0011703609488904476,0.0013090907596051693,0.001467105932533741,-26.457130432128906,39.00851058959961,9.655014038085938,2
1.4223587083324674,1.4223591666668653,1.415031958335021,-0.00038034841418266296,-0.001737356185913086,0.00011891080066561699,0.0004088939167559147,0.0006206636317074299,-0.0011132312938570976,-26.200340270996094,39.5601692199707,9.448211669921875,2
1.432306458329549,1.4323070833343081,1.4249798333403305,-0.0005807057023048401,-0.0014628171920776367,-0.0006104707717895508,-0.0012785517610609531,-0.0007093241438269615,0.00036811036989092827,-26.335159301757812,39.26240539550781,9.59918212890625,2
1.4426817083294736,1.442682833330764,1.435355541667377,-0.0001392364501953125,-0.0016614794731140137,-0.0005019307136535645,0.0011134995147585869,-0.000558056402951479,-0.0006739851087331772,-26.12024688720703,39.25528335571289,9.4019775390625,2
1.4525443333332078,1.4525449583306909,1.4452177083367133,0.00017077475786209106,-0.0015544891357421875,0.0003522038459777832,0.0015453672967851162,0.0006891512311995029,-0.00020136311650276184,-26.014358520507812,39.319801330566406,9.236564636230469,2
1.4626750833340338,1.4626763749984093,1.4553490416728891,7.888488471508026e-05,-0.0012645125389099121,0.00021141720935702324,-0.0014472268521785736,0.0008870242163538933,0.0005983836017549038,-26.152816772460938,39.422607421875,9.587715148925781,2
1.4728909999976167,1.4728923333314015,1.4655650416680146,-0.0001161079853773117,-0.001950979232788086,0.0008487105369567871,-4.26475889980793e-05,0.0017325067892670631,-0.0006621023640036583,-26.190475463867188,39.42635726928711,9.43157958984375,2
1.482859333329543,1.4828600416658446,1.4755327083403245,-0.00017657503485679626,-0.001493215560913086,0.00022232532501220703,-0.0014740964397788048,-0.0015517035499215126,-0.0009747575968503952,-25.99884796142578,39.46830368041992,9.68023681640625,2
1.4928304166678572,1.4928313333293772,1.485504000003857,0.0002450253814458847,-0.0017528533935546875,0.0004633665084838867,0.0006711634341627359,-0.001089329831302166,-0.0006795469671487808,-26.362083435058594,39.283363342285156,9.351875305175781,2
1.5031217916694004,1.503122958332824,1.4957956666694372,2.0425766706466675e-05,-0.0012950301170349121,-9.596394374966621e-05,-0.0025025256909430027,-0.0022515333257615566,-0.0018481425940990448,-26.25324249267578,39.19063186645508,9.499343872070312,2
1.5133679166683578,1.5133691250011907,1.5060417916683946,0.0003683827817440033,-0.0020885467529296875,-0.0010328292846679688,0.0016422041226178408,-0.0012265490368008614,1.9505620002746582e-05,-26.34911346435547,38.86931228637695,9.532989501953125,2
1.522977250002441,1.5229776666674297,1.5156504166734521,0.0003293082118034363,-0.0013101696968078613,0.00024837302044034004,0.001568434527143836,0.0014552539214491844,0.0008900933898985386,-26.166175842285156,39.3815803527832,9.182746887207031,2
1.533206624997547,1.5332072083328967,1.525879958338919,0.00033214129507541656,-0.0011883974075317383,-1.4602672308683395e-05,-0.0013302983716130257,0.000925642903894186,-0.0006597358733415604,-26.331932067871094,39.013671875,8.964096069335938,2
1.5432775000008405,1.5432784583317698,1.5359512500072015,-0.00019167549908161163,-0.0023176074028015137,0.00014859437942504883,-0.0003214930184185505,0.0004531983286142349,-0.0008221883326768875,-26.341400146484375,39.1950798034668,9.163627624511719,2
1.5531951666634995,1.5531954999969457,1.5458682916723774,0.00040657445788383484,-0.002149343490600586,-5.239248275756836e-05,0.001666263910010457,0.00040902988985180855,0.00182691914960742,-26.45269775390625,39.3305778503418,9.12225341796875,2
1.5634335833310615,1.5634343333294964,1.556107125004928,-0.00012778863310813904,-0.0015845298767089844,0.00019925832748413086,-0.002424884121865034,-0.0002176119014620781,0.0005808263085782528,-26.43299102783203,39.16926956176758,9.445930480957031,2
1.5735142083358369,1.5735145833314164,1.5661873333374388,-0.0003401823341846466,-0.0019355416297912598,0.0010187029838562012,-0.0020644632168114185,0.0012648417614400387,0.0009696343913674355,-26.43299102783203,39.16926956176758,9.445930480957031,2
1.5834210000029998,1.5834217083320254,1.5760944583380478,0.00020934268832206726,-0.0019202828407287598,-0.00038170814514160156,0.002694871975108981,-0.0007692808285355568,-0.0003923065960407257,-26.46123504638672,39.335044860839844,9.207794189453125,2
1.5934337500002584,1.5934349583330913,1.5861076250002952,0.0007463023066520691,-0.0014628767967224121,-0.0002868776209652424,-0.002073768526315689,-0.0012856204994022846,-0.0009943069890141487,-26.329330444335938,39.4870491027832,9.101997375488281,2
1.6038491666695336,1.6038507916673552,1.5965234166724258,-0.0009955782443284988,-0.0021648406982421875,-0.00013071298599243164,-0.0010188901796936989,0.0008550281636416912,-0.0019122976809740067,-26.480690002441406,39.17866516113281,9.067268371582031,2
1.6139417916638195,1.6139427083326154,1.6066154583386378,-0.0006070267409086227,-0.0018445849418640137,0.0005245809443295002,0.00028354860842227936,-0.003275226103141904,0.0010277219116687775,-26.259971618652344,39.12942886352539,9.220458984375,2
1.6235729999971227,1.6235736250018817,1.6162463333384949,-8.652172982692719e-05,-0.001386880874633789,0.0005660061724483967,0.0014864983968436718,-0.0013657398521900177,-0.0007286332547664642,-26.409942626953125,39.2352294921875,9.252388000488281,2
1.6339267083312734,1.6339271666656714,1.626599958333827,-0.00024710409343242645,-0.0017074942588806152,0.00021707965061068535,-0.0004653218202292919,-0.00036554643884301186,-0.0009240154176950455,-26.473876953125,39.30219268798828,9.447265625,2
1.644007208335097,1.6440085416688817,1.6366812083360855,-0.0006254427134990692,-0.0011583566665649414,0.00036984682083129883,-0.001485845074057579,0.00025976402685046196,-0.00020203273743391037,-26.368362426757812,39.28511047363281,9.345603942871094,2
1.654083791669109,1.6540845833296771,1.6467573333356995,-0.0002338401973247528,-0.0014786720275878906,0.0009548072703182697,-0.002704131416976452,0.0015896479599177837,0.0009346632286906242,-26.390708923339844,39.28341293334961,9.562149047851562,2
1.6639593750005588,1.6639597499961383,1.6566325000021607,0.0010372437536716461,-0.0012039542198181152,0.0012106900103390217,0.003626735182479024,0.0007073427550494671,0.0007969778962433338,-26.49803924560547,39.386512756347656,9.364501953125,2
1.6740418333356502,1.6740423333321814,1.6667151250003371,-0.0006330162286758423,-0.0022722482681274414,-0.0002797241322696209,-0.0021063308231532574,0.0019369586370885372,-0.0009397612884640694,-26.51434326171875,39.31614685058594,9.071624755859375,2
1.6841999583339202,1.68420054166927,1.6768732916680165,-0.0004943031817674637,-0.0019670724868774414,7.045269012451172e-05,0.0011861352249979973,0.0010256245732307434,-0.0006715813651680946,-26.41114044189453,39.329471588134766,9.287925720214844,2
1.6943896250013495,1.6943902916682418,1.6870630833363975,0.0004858933389186859,-0.001722872257232666,0.0007117982022464275,0.0005476563237607479,0.0019406415522098541,-0.0009112739935517311,-26.32514190673828,39.2723388671875,9.669685363769531,2
1.7046202499986975,1.7046215833324823,1.6972943333385047,-0.000635392963886261,-0.0015398263931274414,0.0004544854164123535,0.0005394003819674253,0.0007411534897983074,-0.0009602764621376991,-26.475189208984375,39.020042419433594,9.697853088378906,2
1.7145115000021178,1.7145120416680584,1.7071847916668048,-0.0002223234623670578,-0.0012499690055847168,-0.0005449657328426838,0.0020200731232762337,0.001552792266011238,0.00026633869856595993,-26.49028778076172,39.15318298339844,9.670402526855469,2
1.7245684583322145,1.7245691666685161,1.71724183333572,0.0005485918372869492,-0.0011429190635681152,2.574920654296875e-05,-0.0006856983527541161,0.00018206331878900528,0.0006234683096408844,-26.427413940429688,39.21117401123047,9.431526184082031,2
1.7347578749977401,1.7347591666693916,1.7274318333365954,-0.00040782615542411804,-0.00211942195892334,0.0006524329073727131,-0.0008560731075704098,0.0024550720117986202,-0.0006190696731209755,-26.476547241210938,39.083805084228516,9.696846008300781,2
1.7448490416645654,1.7448501249964465,1.7375227916709264,-0.0008853897452354431,-0.0021042227745056152,0.0013749608770012856,-0.001073653344064951,-0.0019103814847767353,0.0006517902947962284,-26.527740478515625,39.20515060424805,9.484535217285156,2
1.7546891250021872,1.7546898333312129,1.747362541667826,-0.0011064708232879639,-0.0009137988090515137,-0.00019943714141845703,0.0011513642966747284,8.205929771065712e-05,-0.000628860667347908,-26.477005004882812,39.10907745361328,9.446434020996094,2
1.7651510833311477,1.765156499997829,1.7578291250028997,-0.0005776174366474152,-0.0012951493263244629,0.0006570811383426189,-0.0005591842345893383,-0.0024641891941428185,0.00019325688481330872,-26.382461547851562,38.97098922729492,9.473236083984375,2
1.7750323333311826,1.775032999998075,1.7677056666725548,-0.0002513248473405838,-0.002104043960571289,-7.730722427368164e-05,-0.00130045460537076,-0.0004700138233602047,7.341988384723663e-05,-26.39667510986328,39.14496612548828,9.344779968261719,2
1.7851092083292315,1.7851104166693403,1.777783041667135,-0.00027680955827236176,-0.0020429491996765137,-0.00048100948333740234,-0.0019481354393064976,-0.0005376581102609634,-0.0004605436697602272,-26.710731506347656,39.143829345703125,9.215385437011719,2
1.7950912916639936,1.795092125001247,1.7877648749999935,-0.00026727281510829926,-0.002668321132659912,0.00015914440155029297,1.558009535074234e-05,0.0005573984235525131,-0.00019791815429925919,-26.632896423339844,39.2314338684082,9.160453796386719,2
1.8050927083313582,1.8050933333361172,1.797766125004273,0.0002816971391439438,-0.002012193202972412,0.0006616115570068359,-0.0018840529955923557,-0.003027482656762004,-0.00033107586205005646,-26.367149353027344,39.35041046142578,9.566139221191406,2
1.815032083330152,1.815032375001465,1.8077051666696207,-0.0004569105803966522,-0.0022107958793640137,0.00022113369777798653,-0.002752156462520361,0.0005716755986213684,0.0006193723529577255,-26.156585693359375,39.325042724609375,9.423851013183594,2
1.8253869999971357,1.8253877083334373,1.8180604583394597,-0.0003742910921573639,-0.0015392899513244629,-0.001057624351233244,-0.001350001897662878,-0.0013330173678696156,0.0005434723570942879,-26.31866455078125,39.00752258300781,9.516502380371094,2
1.8354874583310448,1.835488249998889,1.8281610000049113,0.00028194114565849304,-0.001432180404663086,0.000800431240350008,0.00030741142109036446,0.0010583661496639252,0.00033525703474879265,-26.34380340576172,39.28528594970703,9.68292236328125,2
1.8456232500029728,1.8456241250023595,1.8382968333389726,-4.093348979949951e-05,-0.0016611218452453613,0.0005026464350521564,-0.001701410859823227,0.00040242960676550865,-0.001423761248588562,-26.116973876953125,39.09272766113281,9.619033813476562,2
1.8556104166636942,1.8556114166640327,1.8482841250006459,-5.938299000263214e-05,-0.0016764402389526367,-0.00013017607852816582,-0.00014444580301642418,-0.00199976097792387,-0.0019241292029619217,-26.343582153320312,39.2086181640625,9.669670104980469,2
1.8657618750003166,1.8657632083341014,1.8584358750013052,-0.00023016706109046936,-0.0015545487403869629,-0.000113725196570158,-0.0010943952947854996,0.00030493875965476036,0.002471950836479664,-26.215850830078125,39.202880859375,9.91290283203125,2
1.8760365416674176,1.876037833331793,1.868710500006273,0.00015790201723575592,-0.0017830133438110352,6.36582262814045e-05,-0.001381381880491972,0.0004927832633256912,0.0023104907013475895,-26.16497039794922,39.23748016357422,9.654212951660156,2
1.8858228333338047,1.8858235416628304,1.8784962083373102,-0.00027072615921497345,-0.0019201040267944336,-0.00024020718410611153,0.0015566174406558275,-0.0009237518534064293,0.0004982096143066883,-26.133644104003906,39.34914016723633,9.572166442871094,2
1.8958917499985546,1.895892416665447,1.8885651666714693,-0.0014177467674016953,-0.002042114734649658,-2.3663043975830078e-05,0.0024990574456751347,0.0004587331786751747,-0.0008304491639137268,-26.372177124023438,39.32282257080078,9.502471923828125,2
1.9061020416629617,1.9061033749967464,1.898776000001817,2.230517566204071e-05,-0.002164304256439209,-5.602790042757988e-05,0.002643134444952011,0.000905078835785389,-0.0015082238242030144,-26.3914794921875,39.31458282470703,9.370803833007812,2
1.9159835416649003,1.9159838749983464,1.9086565833349596,0.00018932297825813293,-0.002240598201751709,4.5478809624910355e-05,-0.0014641312882304192,-0.0014095031656324863,0.0009062737226486206,-26.4765625,39.35865020751953,9.348831176757812,2
1.9261099166687927,1.9261107916681794,1.9187835416669259,-0.0004013720899820328,-0.0015538930892944336,-0.0006029005162417889,0.0005462891422212124,0.00011169444769620895,-0.0028727520257234573,-26.324546813964844,39.29393005371094,9.541976928710938,2
1.9361456249971525,1.9361465416659485,1.9288193333341042,0.0006290115416049957,-0.0012640953063964844,0.0006324057467281818,-0.0013759923167526722,-0.00018171779811382294,0.0009039663709700108,-26.130599975585938,39.333778381347656,9.357734680175781,2
1.9460883333304082,1.946088625001721,1.9387614166698768,0.000879429280757904,-0.0009894371032714844,-0.0009060497395694256,-0.0010590762831270695,-0.002528228797018528,-0.0011711688712239265,-26.007492065429688,39.51288986206055,9.332435607910156,2
1.956329166663636,1.9563294583349489,1.9490022083336953,0.00017928704619407654,-0.0015237927436828613,7.170485332608223e-05,-0.0007856898009777069,-0.0004202136769890785,-0.003529626876115799,-25.9927978515625,39.3619499206543,9.446601867675781,2
1.966445083329745,1.9664455833335523,1.9591183333395747,-6.780028343200684e-05,-0.0010355710983276367,-0.0005217790603637695,0.0020292713306844234,0.0016844826750457287,0.0018022875301539898,-26.22888946533203,39.429168701171875,9.300117492675781,2
1.9763985833342304,1.976398999999219,1.9690717083358322,0.00016477704048156738,-0.002438962459564209,9.256601333618164e-05,-0.001288013532757759,-0.00137740233913064,0.00021054688841104507,-26.17621612548828,39.5359992980957,8.886123657226562,2
1.9866249166661873,1.9866255833330797,1.9792982916696928,0.00011662207543849945,-0.0022254586219787598,-0.0007180571556091309,-0.00191092723980546,0.0009238352067768574,-0.001041404902935028,-26.29492950439453,39.47901153564453,8.990730285644531,2
1.9967597499999101,1.996760791669658,1.9894334166674525,-0.00010839290916919708,-0.0023020505905151367,-3.6597251892089844e-05,-0.0012969686649739742,0.0009526419453322887,-0.0024050865322351456,-26.181594848632812,39.43113327026367,8.871566772460938,2
2.0069261666649254,2.0069301666662795,1.9996028333334834,-0.00110531784594059,-0.0018292665481567383,-0.000584364403039217,0.00020398898050189018,0.0005931155756115913,0.001307093072682619,-26.3125,39.31666564941406,9.13970947265625,2
2.0170183333320892,2.0170194166639703,2.00969208333845,-0.0004776269197463989,-0.0007911920547485352,0.0002377633936703205,0.003137351479381323,-0.0008178870193660259,0.0006659454666078091,-26.32220458984375,39.28788375854492,8.831146240234375,2
2.027036916668294,2.02703816666326,2.01971083333774,-0.0006602033972740173,-0.0021949410438537598,0.0008772015571594238,-0.0029748696833848953,-0.0012261494994163513,0.0032782400958240032,-26.485069274902344,39.03749084472656,9.166496276855469,2
2.037067333330924,2.0370684583322145,2.0297411666688276,1.078285276889801e-05,-0.002378225326538086,0.0010294322855770588,-0.0016596545465290546,-0.001421076711267233,-0.0005907658487558365,-26.28155517578125,39.399776458740234,9.269767761230469,2
2.0470340000028955,2.0470347500013304,2.039707500000077,-8.301436901092529e-05,-0.0014932751655578613,0.0002130870707333088,-0.000722487922757864,0.00013687275350093842,-0.0005143331363797188,-26.25482177734375,39.599884033203125,8.983383178710938,2
2.0570472916660947,2.0570477500004927,2.049720500006515,-0.00023887120187282562,-0.0021033287048339844,-0.001191556453704834,-0.0004056394100189209,0.0016570803709328175,0.0034640906378626823,-26.2412109375,39.423255920410156,9.079368591308594,2
2.0671949999959907,2.067195999996329,2.059868791671761,-0.00037398189306259155,-0.002560853958129883,0.00046628713607788086,-0.002797957044094801,-0.0017445753328502178,0.0011221067979931831,-26.151588439941406,39.09918212890625,9.41290283203125,2
2.077112999999372,2.0771134166643606,2.069786166670383,0.0001138094812631607,-0.0021030306816101074,-0.0004539494402706623,-0.00023277895525097847,0.0019238661043345928,0.00029464298859238625,-26.15833282470703,39.215301513671875,9.183525085449219,2
2.0872254583300673,2.087225999996008,2.0798987500020303,0.00021081231534481049,-0.0012026429176330566,-9.071780368685722e-05,0.0009699047077447176,-0.002182994969189167,5.2561983466148376e-05,-26.185386657714844,39.23860168457031,9.261634826660156,2
2.0973354166635545,2.0973358749979525,2.090008625003975,0.00018136389553546906,-0.0019505620002746582,-0.0005664825439453125,0.003967859782278538,0.0003701397217810154,-0.001683659851551056,-26.305503845214844,39.40900421142578,9.130134582519531,2
2.1074535833322443,2.107454333330679,2.1001270416672924,0.0003363974392414093,-0.0012938976287841797,0.00018781423568725586,0.0015361271798610687,-0.0004080357030034065,0.0037393346428871155,-26.081832885742188,39.319644927978516,9.292533874511719,2
2.1177672499979963,2.1177682083362015,2.110440833333996,0.0002924967557191849,-0.0012172460556030273,0.0008800630457699299,-8.236197754740715e-05,0.0010606637224555016,0.0007331729866564274,-26.297828674316406,39.42708206176758,9.281936645507812,2
2.1276118750029127,2.1276127916644327,2.1202854583389126,0.0008355733007192612,-0.002346634864807129,0.00042492151260375977,0.00024973414838314056,-0.0005177916027605534,0.0005430234596133232,-26.3814697265625,39.36892318725586,9.119590759277344,2
2.137842708332755,2.137844374999986,2.1305170000050566,0.00011999532580375671,-0.001629471778869629,0.0007751584053039551,0.0010039657354354858,0.0006411406211555004,-0.00045442860573530197,-26.491439819335938,39.30561828613281,9.443092346191406,2
2.147899083334778,2.147900291667611,2.1405729583348148,-0.0004346594214439392,-0.0014769434928894043,-0.0006986265070736408,0.001234062947332859,0.0006360807456076145,-0.0006179464980959892,-26.29730224609375,39.260093688964844,9.254325866699219,2
2.157806625000376,2.1578076666628476,2.1504803750067367,-0.0007368680089712143,-0.001934647560119629,0.0003732438199222088,-0.0010104239918291569,-5.844980478286743e-06,0.002063984517008066,-26.3155517578125,39.26869583129883,9.581878662109375,2
2.168159041662875,2.1681601666641654,2.1608328333386453,0.0010593850165605545,-0.0018581151962280273,0.00015741586685180664,-0.002784355543553829,-0.0008817585185170174,0.0009145643562078476,-26.288597106933594,39.50399398803711,9.073348999023438,2
2.1780466249983874,2.178047624998726,2.170720291673206,-0.0003984682261943817,-0.0011718273162841797,-0.00018393993377685547,2.6310794055461884e-05,-8.404208347201347e-05,8.848216384649277e-05,-26.358070373535156,39.36054229736328,9.196876525878906,2
2.1881542916671606,2.1881548750025104,2.1808275833391235,-0.0006795711815357208,-0.0016905665397644043,-0.0002557034604251385,-0.0012357612140476704,-0.00037698959931731224,0.0011297781020402908,-26.385757446289062,39.27831268310547,9.438880920410156,2
2.1981366666659596,2.1981375416653464,2.1908102500019595,-0.00013689324259757996,-0.0019649863243103027,-0.00016647577285766602,0.00025532860308885574,-0.0009966352954506874,0.0008732620626688004,-26.37335968017578,39.31184768676758,9.163276672363281,2
2.208183499998995,2.2081844999993336,2.2008572916674893,-0.0008177999407052994,-0.001751244068145752,-0.00011426163837313652,0.0018087506759911776,0.0009312266483902931,0.0017172177322208881,-26.44903564453125,39.09532165527344,9.14215087890625,2
2.2181294999973034,2.218130041663244,2.2108028333386756,0.00018400512635707855,-0.0023460984230041504,-0.00032252026721835136,-0.0006085922941565514,3.497442230582237e-05,-0.0009292876347899437,-26.253128051757812,39.218414306640625,8.91650390625,2
2.228448916663183,2.22844941666699,2.221122208335146,1.9665807485580444e-05,-0.002239227294921875,0.00032085180282592773,-0.0005872873589396477,0.0022957324981689453,0.0009967107325792313,-26.2568359375,39.34633255004883,9.4329833984375,2
2.2385162499995204,2.23851683333487,2.2311895833336166,0.0001326426863670349,-0.0012626051902770996,0.00018900632858276367,-0.001116819679737091,-0.0018824622966349125,0.0002375226467847824,-26.107177734375,39.13534164428711,9.28582763671875,2
2.248588208334695,2.2485888750015874,2.241261625000334,-0.0008222796022891998,-0.0014761686325073242,0.0008394718170166016,-0.0009522363543510437,0.0032268124632537365,0.0007994496263563633,-26.012603759765625,39.37852478027344,9.26806640625,2
2.258565958334657,2.258566458331188,2.2512391666678013,4.393048584461212e-05,-0.0020408034324645996,0.0005465750582516193,-0.0005372045561671257,0.0004300153814256191,-0.0005809124559164047,-26.442550659179688,39.35558319091797,9.337554931640625,2
2.2689422499970533,2.2689436666696565,2.2616163750062697,5.243159830570221e-05,-0.0013085603713989258,0.00016069458797574043,0.0020338110625743866,-0.0006674733012914658,-0.001630198210477829,-26.41284942626953,39.333465576171875,9.441497802734375,2
2.2788914166667382,2.2788929583330173,2.271565625000221,-0.0006574951112270355,-0.0017969012260437012,-0.00011551333591341972,0.0016332757659256458,0.0005363849923014641,-0.0011904779821634293,-26.456871032714844,39.29097366333008,9.384262084960938,2
2.2889592083301977,2.2889602916693548,2.2816329583365587,-0.00013890303671360016,-0.0013998746871948242,0.00021582888439297676,0.002280157757923007,-0.001345671247690916,0.002927833702415228,-26.37969207763672,39.281883239746094,9.388107299804688,2
2.299112791668449,2.2991137916687876,2.2917865000054007,-0.00040321238338947296,-0.0015674829483032227,0.001163423527032137,-0.00020289001986384392,0.00019303616136312485,0.0012048291973769665,-26.343467712402344,39.2873420715332,9.577186584472656,2
2.3090002083336003,2.3090009583320352,2.3016737083380576,0.00020899809896945953,-0.001734912395477295,0.0009258990176022053,-0.0005645472556352615,0.0016617695800960064,0.0015976452268660069,-26.445175170898438,39.26581954956055,9.2698974609375,2
2.319200500001898,2.3192012083309237,2.311873916667537,-0.00025605596601963043,-0.0011857151985168457,-2.4378299713134766e-05,-0.0008892593905329704,-0.0023572829086333513,-0.0020705843344330788,-26.4534912109375,39.132511138916016,9.239303588867188,2
2.3289909583327244,2.328991374997713,2.3216641250037355,-0.0003481488674879074,-0.0019945502281188965,0.00020509958267211914,-0.002100997604429722,-0.0017109336331486702,-0.002029038965702057,-26.61280059814453,39.32984161376953,9.321388244628906,2
2.339145041667507,2.339145958336303,2.3318187500044587,7.10655003786087e-05,-0.0019183754920959473,-0.0003947014920413494,0.0013929128181189299,0.001106327399611473,-0.0002618255093693733,-26.4390869140625,39.26306915283203,9.161659240722656,2
2.3492380416646483,2.3492382083350094,2.341911000003165,0.000677209347486496,-0.0017200708389282227,0.0004609823226928711,0.0006040844600647688,0.0007073855958878994,-0.00022667180746793747,-26.48627471923828,39.09217834472656,9.809036254882812,2
2.359527666667418,2.359528583336214,2.3522013333349605,0.0006264075636863708,-0.002406895160675049,-0.0005385284312069416,0.0006333109922707081,0.0005187550559639931,-0.0008298130705952644,-26.40306854248047,39.28676223754883,9.773330688476562,2
2.3696684166643536,2.3696692916637403,2.3623420416697627,-0.0014482773840427399,-0.0015523433685302734,-4.7862064093351364e-05,-0.0016793780960142612,-0.00013531744480133057,-0.0009978590533137321,-26.2786865234375,39.309120178222656,9.910995483398438,2
2.379591833334416,2.379592249999405,2.3722650000054273,0.00012315623462200165,-0.002208411693572998,0.0005061035044491291,0.0013353254180401564,-0.0015930295921862125,0.00025587575510144234,-26.241790771484375,39.36665725708008,9.748458862304688,2
2.389681874999951,2.389682958331832,2.3823556666684453,0.0009482391178607941,-0.0021165013313293457,0.0010975007899105549,0.00035927677527070045,0.00034042540937662125,0.000599956139922142,-26.3370361328125,39.358856201171875,9.629417419433594,2
2.399844833329553,2.399846125001204,2.392518791668408,0.0002616066485643387,-0.0022232532501220703,0.0009827017784118652,0.0015023162122815847,0.0009223651140928268,-0.0008494732901453972,-26.583602905273438,39.053955078125,9.226119995117188,2
2.4100257083337056,2.4100272499999846,2.4026999166671885,-0.00012355856597423553,-0.001964271068572998,0.000738025177270174,-0.0022897589951753616,-0.001796988770365715,-0.001622854731976986,-26.554336547851562,39.110897064208984,9.343238830566406,2
2.4197827916650567,2.4197835416634916,2.4124562083379715,0.00033931806683540344,-0.0021173954010009766,0.0011476879008114338,-0.001170075498521328,-0.0003111334517598152,-0.00042232777923345566,-26.283729553222656,39.230960845947266,9.745048522949219,2
2.4300000833318336,2.430001083332172,2.422673750006652,-0.0006574615836143494,-0.0016440749168395996,0.00013256166130304337,0.000597997335717082,-0.0009124753996729851,0.001300737727433443,-26.049850463867188,39.14353561401367,9.540672302246094,2
2.4401067916696775,2.4401080000025104,2.4327806666697143,-0.00027720630168914795,-0.0013082027435302734,0.000866234302520752,-0.0003571012057363987,-0.0018290630541741848,0.0013449694961309433,-26.30077362060547,39.27210235595703,9.468765258789062,2
2.4501266250008484,2.4501290416665142,2.4428017500031274,-7.200613617897034e-05,-0.0020862221717834473,0.0015203356742858887,0.001439467305317521,-0.0003763088025152683,0.0020666862837970257,-26.13513946533203,39.124725341796875,9.230712890625,2
2.460135249995801,2.460135666668066,2.4528084166668123,0.00023833662271499634,-0.0018882155418395996,0.0005900263786315918,-0.002541591878980398,-0.0012679984793066978,-0.0020179804414510727,-26.302215576171875,39.426361083984375,9.3798828125,2
2.4701405000014347,2.4701455416652607,2.462818291671283,0.000186162069439888,-0.0020866990089416504,-0.0003561372868716717,-0.0008270489051938057,-0.0011348403058946133,0.0021083210594952106,-26.114944458007812,39.386207580566406,9.364707946777344,2
2.480172291667259,2.4801725833312958,2.4728453750067274,0.00044879503548145294,-0.0019492506980895996,0.00095027731731534,-0.001209457404911518,0.000240993220359087,0.0006418381817638874,-26.325546264648438,39.328800201416016,9.322723388671875,2
2.490229791663296,2.4902300416651997,2.482902791671222,0.0007047168910503387,-0.0018726587295532227,0.00021606683731079102,0.0016236130613833666,-0.0033335015177726746,0.0006293212063610554,-26.38897705078125,38.915828704833984,9.492012023925781,2
2.500448500002676,2.5004489999992074,2.49312175000523,7.591955363750458e-05,-0.0021625757217407227,0.0006076102145016193,-0.0022140927612781525,-0.000818206463009119,-0.0018389001488685608,-26.398094177246094,39.08360290527344,9.362762451171875,2
2.510598791668599,2.5105993333345396,2.503272083340562,-0.00011427141726016998,-0.0015065670013427734,0.00012183189392089844,-9.980890899896622e-05,0.002422594465315342,-0.0008689770475029945,-26.687232971191406,39.05815124511719,9.204177856445312,2
2.52059354166704,2.520594000001438,2.513266708338051,0.0010395422577857971,-0.0024677515029907227,0.0004909634590148926,-0.0030596964061260223,-0.00010962272062897682,0.001270282082259655,-26.393280029296875,39.23226547241211,9.438896179199219,2
2.530877541663358,2.5308785416636965,2.5235512083381764,0.00043492577970027924,-0.0019336342811584473,-0.0004209880717098713,-0.0006276974454522133,-0.0015943348407745361,-0.0006178990006446838,-26.328086853027344,38.99304962158203,9.476531982421875,2
2.540865291666705,2.5408661249966826,2.5335388333405717,-0.00014170818030834198,-0.0012014508247375488,0.00026911497116088867,-0.002062384970486164,-4.795007407665253e-05,-0.0010239966213703156,-26.401405334472656,39.22358322143555,9.560020446777344,2
2.5509651666652644,2.550966166665603,2.543638833340083,-0.0005620419979095459,-0.0014916062355041504,0.00017750263214111328,0.0010007829405367374,0.000939816702157259,-9.455345571041107e-05,-26.468032836914062,39.52824401855469,9.508270263671875,2
2.5609064166637836,2.5609072083316278,2.553579916668241,0.0008549056947231293,-0.0016136765480041504,-0.0005899067036807537,-7.261242717504501e-05,-0.000560395885258913,-0.00036135781556367874,-26.224014282226562,39.252655029296875,9.646621704101562,2
2.571210666668776,2.5712119583331514,2.5638846250003553,8.915364742279053e-05,-0.0019948482513427734,0.0007995367050170898,-9.79122705757618e-05,-0.0017668078653514385,0.0022717094980180264,-26.416297912597656,39.25872039794922,9.764175415039062,2
2.581212291668635,2.5812131249986123,2.573885750003683,0.0002968739718198776,-0.0014606118202209473,0.0002676248550415039,-0.00034198909997940063,-0.00025120144709944725,-0.0007275855168700218,-26.40178680419922,39.19528579711914,9.66387939453125,2
2.5912502499995753,2.591251291669323,2.583923958336527,0.00030010007321834564,-0.002025127410888672,-0.0004361271858215332,-0.00034704897552728653,0.0013224603608250618,0.0006564594805240631,-26.44579315185547,38.956295013427734,9.782798767089844,2
2.6011877916680533,2.6011887083295733,2.5938614583355957,0.0005100052803754807,-0.0015674233436584473,0.0006583337672054768,0.0019937315955758095,-9.044306352734566e-05,-0.0001791110262274742,-26.380050659179688,38.98759841918945,9.571113586425781,2
2.6112292083344073,2.6112304583293735,2.603903250004805,0.0003001149743795395,-0.0021620988845825195,6.848527118563652e-05,0.0017140998970717192,0.0003154226578772068,0.00036523910239338875,-26.451126098632812,38.82455062866211,9.606796264648438,2
2.6212125416641356,2.62121274999663,2.6138855416720617,-9.84780490398407e-06,-0.0014904141426086426,0.0004133586771786213,-0.0014331871643662453,-0.00017576292157173157,0.0004274016246199608,-26.179351806640625,39.236244201660156,9.246101379394531,2
2.6316208749994985,2.6316214583348483,2.6242941666714614,0.00035853683948516846,-0.001170039176940918,0.0011059646494686604,-0.0032854159362614155,0.0006865686737000942,-0.0003798026591539383,-26.08924102783203,39.00286102294922,9.654815673828125,2
2.641484499996295,2.6414850000001024,2.634157750006125,0.0001523345708847046,-0.0022994279861450195,0.00024884939193725586,-0.0012652366422116756,-0.0004522036761045456,-0.0012383237481117249,-26.19922637939453,38.99935531616211,9.493507385253906,2
2.6517444999990403,2.651744916664029,2.6444176666700514,-6.189383566379547e-05,-0.002208232879638672,0.00021988200023770332,-0.0007834709249436855,0.00010226666927337646,0.0005553155206143856,-26.083335876464844,38.908103942871094,9.3409423828125,2
2.6618293749997974,2.6618304583316785,2.6545031666682917,9.950809180736542e-05,-0.001078963279724121,-0.0001703496091067791,0.00011261133477091789,2.0388979464769363e-05,0.0021444163285195827,-26.228500366210938,39.13166427612305,9.272216796875,2
2.6720272500024294,2.6720286249983474,2.664701291672827,0.0003443341702222824,-0.0017500519752502441,0.0004744534380733967,0.0009477785788476467,0.0013248054310679436,0.0007353378459811211,-26.11822509765625,39.151344299316406,9.142120361328125,2
2.681947333330754,2.6819484166626353,2.674621083337115,0.0006044898182153702,-0.0015821456909179688,-0.000934302806854248,0.00015926267951726913,0.0024764705449342728,0.00026833033189177513,-26.089111328125,39.14447784423828,9.154266357421875,2
2.6919857499960926,2.691986541663937,2.6846592083384166,8.991733193397522e-05,-0.001689136028289795,-0.0001658792607486248,-0.0024493038654327393,0.00139283062890172,-0.0007561873644590378,-26.28260040283203,39.43830490112305,8.949615478515625,2
2.702021124998282,2.7020223750005243,2.6946950833371375,-0.0004423074424266815,-0.0018568634986877441,0.0012346506118774414,0.000182347372174263,-0.0013203187845647335,0.0005465792492032051,-26.572776794433594,39.44427490234375,9.394432067871094,2
2.712268833332928,2.7122699583342182,2.704942583339289,0.00040636397898197174,-0.002039790153503418,0.0008561015129089355,-0.0013103540986776352,0.0016626878641545773,0.001978294923901558,-26.336463928222656,39.30976104736328,9.186126708984375,2
2.7221182083303574,2.722119041667611,2.714791750004224,-9.531714022159576e-05,-0.0015358328819274902,0.0007337932474911213,0.00307111581787467,-0.001297286245971918,0.0008474281057715416,-26.084564208984375,39.28182601928711,8.876579284667969,2
2.732220749996486,2.732221958329319,2.7248947500047507,0.0009185671806335449,-0.0013222098350524902,0.0008209943771362305,0.0005541620776057243,-0.00210395734757185,-0.0012530069798231125,-26.25835418701172,39.151607513427734,9.108200073242188,2
2.7422311249974882,2.742231374999392,2.7349041666675475,-0.0001895371824502945,-0.0019328594207763672,0.00021886778995394707,0.0007109427824616432,0.0005006152205169201,-0.0008710445836186409,-26.198081970214844,38.93295669555664,9.144691467285156,2
2.7522791666633566,2.7522795833356213,2.7449522916722344,3.93204391002655e-05,-0.0017496943473815918,0.00023299455642700195,-0.001041683368384838,-0.00112444581463933,-0.0006310939788818359,-26.261444091796875,38.948177337646484,8.885269165039062,2
2.7626105416638893,2.76261108332983,2.7552838333358523,0.0006317179650068283,-0.001948237419128418,0.0006582140922546387,-0.0017022308893501759,-0.0009387354366481304,-0.00047710444778203964,-26.544723510742188,38.969112396240234,9.070510864257812,2
2.7726414166681934,2.772642249998171,2.765314958334784,-0.00010594911873340607,-0.0019788146018981934,0.00032788515090942383,-0.0014388440176844597,-0.0005778772756457329,-0.0002478063106536865,-26.53510284423828,39.00873565673828,9.080696105957031,2
2.78270799999882,2.782708624996303,2.775381333340192,6.410852074623108e-05,-0.0016278624534606934,-0.0006981492042541504,-0.000382130965590477,0.00032806675881147385,-0.001395578496158123,-26.40575408935547,38.93243408203125,8.963325500488281,2
2.7929113333302666,2.792912583332509,2.7855852500069886,0.0004600081592798233,-0.000925898551940918,0.0005460386164486408,-0.0005030385218560696,0.0007714829407632351,0.0015480131842195988,-26.373931884765625,38.94691467285156,9.262153625488281,2
2.80292129166628,2.802922958333511,2.7955957083395333,0.0004534907639026642,-0.0017648935317993164,0.00012260721996426582,0.0003047245554625988,-0.001208735629916191,0.0008629187941551208,-26.42169952392578,39.024192810058594,9.408935546875,2
2.812975250002637,2.8129759583316627,2.805648708337685,7.3071569204330444e-06,-0.0018717050552368164,3.8743019104003906e-05,0.0009374916553497314,-0.0025331254582852125,-0.0021057073026895523,-26.368934631347656,38.81208419799805,9.891899108886719,2
2.823018000002776,2.82301912499679,2.81569179167127,-8.131377398967743e-05,-0.0017499327659606934,0.00035059498623013496,-0.000488795805722475,-0.0007667504251003265,-0.0031461790204048157,-26.24559783935547,39.121517181396484,9.43463134765625,2
2.8330344583300757,2.8330350416654255,2.8257077500020387,-2.975761890411377e-05,-0.0021314024925231934,0.00028455210849642754,-0.00036069750785827637,0.002513198647648096,0.0013503022491931915,-26.25751495361328,39.203407287597656,9.460182189941406,2
2.8432234166684793,2.8432240833353717,2.8358967500025756,0.0007194261997938156,-0.0026344656944274902,0.0006780624389648438,-0.0014000996015965939,7.959222421050072e-05,0.000102972611784935,-26.299270629882812,38.91469955444336,9.226234436035156,2
2.8533642499969574,2.853365083334211,2.8460377500014147,-0.000258835032582283,-0.0010474324226379395,0.0004076957702636719,0.0013725175522267818,0.0013730893842875957,0.00019884668290615082,-26.46312713623047,38.93642044067383,9.202751159667969,2
2.8631374166652677,2.863138416665606,2.8558111666716286,0.00012826360762119293,-0.0012456774711608887,-0.0002846717834472656,0.001704951049759984,0.000931022223085165,-0.0004318784922361374,-26.308998107910156,39.02763748168945,9.462188720703125,2
2.873531458331854,2.87353237500065,2.8662051250066725,-0.0003833062946796417,-0.0015658736228942871,-0.0006086230278015137,-0.0006133308634161949,-0.0011560972779989243,0.0020395349711179733,-26.22167205810547,38.9224967956543,9.425094604492188,2
2.883198999996239,2.883199333329685,2.8758720833357074,6.62095844745636e-05,-0.0012910962104797363,0.0011333227157592773,-0.0011800602078437805,0.0021604965440928936,0.0011356617324054241,-26.23937225341797,39.09168243408203,9.453102111816406,2
2.8936675833319896,2.8936686250017374,2.886341375000484,-0.0004894416779279709,-0.0014283061027526855,0.0009061689488589764,-0.0014461101964116096,0.0018984409980475903,0.0010933177545666695,-26.276535034179688,39.24542236328125,9.637413024902344,2
2.90343112499977,2.9034316666657105,2.896104416671733,0.0010298769921064377,-0.001534879207611084,0.0005020499229431152,0.0014447555877268314,0.0005787271074950695,0.0016935383901000023,-26.317428588867188,39.11229705810547,9.695404052734375,2
2.9137713333329884,2.9137721250008326,2.9064448333374457,-0.0005888845771551132,-0.0008482933044433594,5.078315734863281e-05,-0.0013840538449585438,0.0012833992950618267,-0.00030942540615797043,-26.275169372558594,39.25372314453125,9.594253540039062,2
2.9238739166685264,2.9238745416660095,2.9165472500026226,0.0002605672925710678,-0.0015044808387756348,0.0007314677350223064,0.0017884783446788788,-0.0013300096616148949,0.0013653379864990711,-26.314056396484375,39.11184310913086,9.347610473632812,2
2.9337640416633803,2.9337646666681394,2.9264373750047525,8.512288331985474e-06,-0.002892911434173584,0.0011675357818603516,-0.0008112993091344833,-0.0006120214238762856,-0.0007100636139512062,-26.462608337402344,39.14231872558594,9.954750061035156,2
2.944233666668879,2.9442349583332543,2.936907583338325,-0.00032133422791957855,-0.00251162052154541,4.07099723815918e-05,0.0015067774802446365,0.001426810398697853,0.0005309800617396832,-26.409591674804688,38.98881149291992,9.720039367675781,2
2.954079166665906,2.954079916664341,2.946752625000954,0.00027597881853580475,-0.0019469857215881348,0.00045013427734375,-0.001619507558643818,-0.0010203681886196136,-0.00046584103256464005,-26.428619384765625,39.05226516723633,9.612457275390625,2
2.964129250001861,2.964130499996827,2.95680320833344,0.00019523873925209045,-0.0008941888809204102,-8.881092071533203e-06,0.0008700464386492968,-0.0010149362497031689,0.0005563199520111084,-26.5159912109375,38.93824005126953,9.579574584960938,2
2.974430249996658,2.9744317500008037,2.9671043750058743,0.00046491995453834534,-0.001779317855834961,-0.0002199406735599041,0.0009656539186835289,-0.0011195982806384563,-0.0015057651326060295,-26.32935333251953,39.13212966918945,9.79656982421875,2
2.984363541669154,2.9843800833332352,2.9770527916698484,0.0007460396736860275,-0.002817094326019287,-3.415299579501152e-05,-0.0012661549262702465,-0.00012562144547700882,0.0009030825458467007,-26.24828338623047,39.107757568359375,9.807235717773438,2
2.994152541665244,2.994153333333088,2.986826125001244,0.00012639164924621582,-0.0013521313667297363,6.371736526489258e-05,-0.0010264702141284943,5.041342228651047e-05,-0.00029267650097608566,-26.366500854492188,39.24345016479492,9.606597900390625,2
3.0042488333347137,3.004249500001606,2.9969222916697618,-4.203431308269501e-05,-0.0020235180854797363,0.0014939899556338787,0.00012161536142230034,-0.002413483103737235,-0.0009811446070671082,-26.082237243652344,39.33311080932617,9.636703491210938,2
3.0143029166647466,3.014303291667602,3.0069760416736244,-0.00015196576714515686,-0.001962900161743164,0.00044590234756469727,-0.00010715052485466003,0.0013311877846717834,-0.0009941942989826202,-26.10346221923828,39.36741638183594,9.4520263671875,2
3.0243816250003874,3.024382333329413,3.0170550833354355,-0.0007170829921960831,-0.0019934773445129395,0.00022107362747192383,-0.00028705084696412086,-0.0002739974297583103,0.00024201441556215286,-26.288681030273438,39.337501525878906,9.463577270507812,2
3.0345206666679587,3.0345212499960326,3.027194000002055,-9.339489042758942e-05,-0.001596689224243164,0.0005317926406860352,0.0012131077237427235,0.0017811637371778488,-0.0019982364028692245,-26.475074768066406,39.23038101196289,9.650947570800781,2
3.0446239583325223,3.044624374997511,3.0372971666729427,0.00035787560045719147,-0.0013222098350524902,0.0010538101196289062,-0.00350758945569396,0.0019610156305134296,-0.0015584426000714302,-26.487472534179688,39.26753234863281,9.683799743652344,2
3.0546243749995483,3.05462508333585,3.0472978333345964,-2.470053732395172e-05,-0.0015210509300231934,0.0003967885859310627,0.002444575307890773,-0.0022763400338590145,-0.000521673820912838,-26.529823303222656,39.13046646118164,9.564468383789062,2
3.064758708329464,3.06475962499826,3.057432333334873,-1.798197627067566e-05,-0.0013839006423950195,0.00015544937923550606,-0.001585284247994423,-0.0007237247191369534,9.712018072605133e-05,-26.343948364257812,39.099369049072266,9.368331909179688,2
3.0751352083316306,3.0751367499979096,3.0678093750029802,0.0002541933208703995,-0.0017954707145690918,0.0004977579228579998,0.0008866619318723679,-0.0008038859814405441,0.0010864846408367157,-26.3519287109375,39.07319641113281,9.543838500976562,2
3.0849105833331123,3.0849112500000047,3.0775839166672085,0.00027869828045368195,-0.0022682547569274902,-0.0006242985837161541,-0.0012594801373779774,0.0010312879458069801,0.0016005714423954487,-26.458786010742188,39.22362518310547,9.597129821777344,2
3.095045708330872,3.095046333335631,3.087719041672244,0.0005247779190540314,-0.001994013786315918,0.0005848412401974201,-0.0006735851056873798,-0.00016313977539539337,-0.00216726865619421,-26.718673706054688,39.18416213989258,9.402000427246094,2
3.1053057916651596,3.10530691666645,3.097979625003063,0.00022913701832294464,-0.0011854171752929688,0.0009033684618771076,5.8342237025499344e-05,0.001833124551922083,0.0018854839727282524,-26.56726837158203,39.16057586669922,9.284706115722656,2
3.115376749999996,3.1153776249993825,3.1080502916738624,2.1792948246002197e-06,-0.001429438591003418,0.001020014751702547,0.0003430340439081192,0.00026718620210886,-8.818414062261581e-05,-26.491455078125,39.17338180541992,9.603721618652344,2
3.1252090416674037,3.125209874997381,3.1178826250034035,0.0004428550601005554,-0.0017651915550231934,-2.3305416107177734e-05,-0.0011310102418065071,-0.0013840505853295326,0.0012180912308394909,-26.49864959716797,39.31777572631836,9.198394775390625,2
3.135297916669515,3.135298499997589,3.1279712916730205,-2.280808985233307e-05,-0.0014601349830627441,-0.00042253732681274414,0.00018272735178470612,0.0015163980424404144,-0.0006690248847007751,-26.62171173095703,39.2738037109375,9.210357666015625,2
3.1452502499960246,3.14525062499888,3.137923416667036,0.0005188323557376862,-0.0019178986549377441,0.0005124812014400959,0.0025486797094345093,5.247490480542183e-05,-0.003345699980854988,-26.45977783203125,39.352230072021484,9.097488403320312,2
3.1555889583323733,3.1555935833312105,3.148266333337233,1.874566078186035e-05,-0.0018418431282043457,-0.000360309612005949,0.001386742340400815,0.0008250577375292778,-0.00038612913340330124,-26.31421661376953,39.213016510009766,9.263839721679688,2
3.165516958331864,3.165517249995901,3.1581900416713324,0.0004531312733888626,-0.0017958283424377441,0.00010693073272705078,0.0008506705053150654,0.0007764114998281002,0.0020894440822303295,-26.085906982421875,39.20796585083008,9.390716552734375,2
3.175712750002276,3.1757137083332054,3.168386458339228,1.8028542399406433e-05,-0.002009272575378418,-0.000171661376953125,0.001711936667561531,0.0014757574535906315,-0.0007002167403697968,-26.245498657226562,38.87102508544922,9.5267333984375,2
3.185892833331309,3.185893458336068,3.1785662083348143,0.0003703273832798004,-0.0015361309051513672,0.00022286223247647285,-0.0009953328408300877,0.00017166743054986,0.0008768662810325623,-26.479354858398438,39.049251556396484,9.417854309082031,2
3.195936583331786,3.1959377083330764,3.1886103750002803,0.0005742963403463364,-0.001703798770904541,0.0008082990534603596,-8.479831740260124e-05,0.00017406465485692024,0.0012710141018033028,-26.630828857421875,39.05790710449219,9.52862548828125,2
3.2060785833309637,3.206079999996291,3.1987526250013616,-0.0007023774087429047,-0.0019322037696838379,0.0005116467364132404,-0.00034853117540478706,0.0004251650534570217,0.002503332681953907,-26.70966339111328,39.07400131225586,9.388526916503906,2
3.2160803750011837,3.216085000000021,3.208757666667225,-0.00014889799058437347,-0.0016723871231079102,-0.0004151458851993084,0.00045814039185643196,-0.000947694294154644,0.0008812015876173973,-26.706626892089844,38.99736785888672,9.690750122070312,2
3.22605191666662,3.2260532083309954,3.2187258750054752,0.00016689486801624298,-0.0026490092277526855,-1.2278091162443161e-05,-0.0006327638402581215,-0.002944542560726404,0.0004984182305634022,-26.49933624267578,39.188560485839844,9.500595092773438,2
3.2361154166646884,3.236116458334436,3.228789250002592,-0.0004132222384214401,-0.002343893051147461,0.0003649597056210041,-0.0017867116257548332,-9.203050285577774e-05,-0.001081901602447033,-26.324813842773438,38.91444778442383,9.713432312011719,2
3.246635041665286,3.2466362083359854,3.2393088750031893,0.0005109179764986038,-0.0016117095947265625,0.0005676755681633949,-0.0011172154918313026,0.0009556934237480164,0.0007836981676518917,-26.554031372070312,39.02967834472656,9.187637329101562,2
3.2564097916692845,3.2564108750011656,3.2490835416683694,0.0008736737072467804,-0.0013673901557922363,0.0007930397987365723,-0.0011558313854038715,-0.0004938649944961071,-0.0002051331102848053,-26.52977752685547,39.12006759643555,9.315399169921875,2
3.2664777083336958,3.2664785833330825,3.259151333339105,0.0004795342683792114,-0.001291036605834961,7.391022518277168e-05,0.0012906170450150967,-0.0019957982003688812,-0.0010044258087873459,-26.382522583007812,39.04393768310547,9.342140197753906,2
3.2766626666634693,3.2766631666672765,3.2693359583354322,0.0003344826400279999,-0.0016570091247558594,-0.00017255498096346855,0.0015263068489730358,-0.0019068485125899315,0.0005346150137484074,-26.286666870117188,38.92070007324219,9.601737976074219,2
3.2863391249993583,3.286339666665299,3.2790124583334546,0.000989709049463272,-0.002114713191986084,0.0006090407259762287,0.002122560515999794,-0.0008017965592443943,0.0012005888856947422,-26.28327178955078,39.087642669677734,9.682502746582031,2
3.296570749997045,3.2965711249999003,3.289243916668056,6.712786853313446e-05,-0.001977086067199707,0.0006498103030025959,0.00027512572705745697,0.0007825181819498539,0.0017667771317064762,-26.305625915527344,39.10986328125,9.776557922363281,2
3.306725083333731,3.3067257083312143,3.2993984583372367,0.00014669261872768402,-0.0019312500953674316,-0.0004514451138675213,-0.0010000644251704216,-0.0009906524792313576,-0.000523141585290432,-26.405677795410156,39.18059158325195,9.57354736328125,2
3.316704083335935,3.3167046250018757,3.309377333338489,7.327646017074585e-05,-0.0022822022438049316,-0.0002898573875427246,0.000898502767086029,8.766166865825653e-05,-0.0018485970795154572,-26.377227783203125,39.149078369140625,9.586875915527344,2
3.3268206666689366,3.3268215416683233,3.3194942500049365,-0.00019467808306217194,-0.002007722854614258,1.6689300537109375e-06,-0.00223740516230464,-0.0017128055915236473,-0.0007036719471216202,-26.39111328125,39.17472457885742,9.540283203125,2
3.3369882083352422,3.336988916664268,3.329661625000881,0.00019936449825763702,-0.0017331838607788086,-0.0007554888725280762,-0.0005241939797997475,-0.0009266403503715992,-0.0013729240745306015,-26.462364196777344,39.32085418701172,9.82269287109375,2
3.347174875001656,3.347176291666983,3.3398488750026445,-0.00015030242502689362,-0.0022367238998413086,0.0014796261675655842,-0.001725723035633564,0.001772911287844181,6.978120654821396e-05,-26.629287719726562,39.09016799926758,9.696067810058594,2
3.3571315000008326,3.3571325416633044,3.3498052083377843,-0.0003431662917137146,-0.002785980701446533,0.0004507899284362793,0.000711602158844471,-8.943723514676094e-05,0.001318537164479494,-26.636489868164062,39.29438781738281,9.427650451660156,2
3.3670759583328618,3.367076583330345,3.359749291666958,-5.319342017173767e-05,-0.0018856525421142578,-0.00020736455917358398,0.001160012325271964,3.7600286304950714e-05,-0.0008562235161662102,-26.531356811523438,39.22895050048828,9.495628356933594,2
3.3772715416635037,3.3772722499998054,3.3699449166670092,0.0011429619044065475,-0.001321256160736084,-0.0009281043894588947,0.001426594564691186,-0.000921138096600771,0.001023435965180397,-26.301048278808594,39.198692321777344,9.527664184570312,2
3.387365333335765,3.3873665833307314,3.380039250005211,-0.0003618970513343811,-0.0011684298515319824,-0.0009546279907226562,0.00013472465798258781,-0.0036170976236462593,0.0004121903330087662,-26.521286010742188,39.333580017089844,9.706085205078125,2
3.397271333335084,3.397272291666013,3.3899450416720356,0.00028037093579769135,-0.002205967903137207,-0.0006758570671081543,-0.0008133603259921074,-0.000787222757935524,0.0006774412468075752,-26.621124267578125,39.0512580871582,9.63800048828125,2
3.407441374998598,3.407442583331431,3.400115333337453,0.0001404639333486557,-0.001671910285949707,-0.0006793737411499023,0.001460374565795064,0.0011637820862233639,0.0006172005087137222,-26.698410034179688,39.020118713378906,9.585670471191406,2
3.417304291666369,3.4173044999988633,3.409977291667019,-0.0005595758557319641,-0.001855015754699707,-0.0003548860549926758,-0.00015350105240941048,0.00031822873279452324,0.0026412028819322586,-26.375328063964844,39.11598205566406,9.055641174316406,2
3.427642291666416,3.4276430000027176,3.420315750001464,-6.212666630744934e-05,-0.0017785429954528809,0.0008585457690060139,0.0006828990299254656,-0.0020522656850516796,0.0020210128277540207,-26.45440673828125,39.2035026550293,9.462303161621094,2
3.43774612499692,3.4377467916638125,3.4304195000004256,0.00028991326689720154,-0.0018242597579956055,0.0010833144187927246,-0.00030033988878130913,-0.0026706515345722437,-0.001695428043603897,-26.440216064453125,39.22074890136719,9.684616088867188,2
3.447614083335793,3.4476145833323244,3.4402872916689375,0.00023513473570346832,-0.0008475184440612793,2.574920654296875e-05,0.0008092448115348816,0.00010021496564149857,0.0009343200363218784,-26.706192016601562,39.2846565246582,9.301956176757812,2
3.4579087083329796,3.45790983333427,3.450582541670883,0.00020287558436393738,-0.0010001063346862793,0.0002904529683291912,0.0016329605132341385,-0.001061722170561552,-0.0009274957701563835,-26.536163330078125,39.2675666809082,9.04437255859375,2
3.467951416663709,3.467952624996542,3.460625291671022,-0.00038329511880874634,-0.0016411542892456055,0.00027185631915926933,-0.00016573863103985786,0.0006483527831733227,0.00026453426107764244,-26.349327087402344,39.357975006103516,9.066291809082031,2
3.477999708331481,3.478000791663362,3.4706735000072513,0.00014476105570793152,-0.0020990371704101562,0.0009996299631893635,0.0003245491534471512,0.0036998027935624123,0.00085096200928092,-26.33672332763672,39.294097900390625,8.982040405273438,2
3.488197458333161,3.4881982500010054,3.4808709583376185,0.000538308173418045,-0.00110703706741333,0.0009019379504024982,-0.000291943084448576,-0.0009715287014842033,0.001457329373806715,-26.281723022460938,39.29098129272461,9.1641845703125,2
3.4982502083294094,3.4982512916685664,3.490923916673637,0.00012034177780151367,-0.001824021339416504,9.483145549893379e-05,-0.0022304579615592957,0.0016567450948059559,0.0007915389724075794,-26.556678771972656,39.09718704223633,9.337821960449219,2
3.5083311249982216,3.508332083329151,3.50100479167304,0.0004098936915397644,-0.0013661980628967285,0.0008180146105587482,0.0046770935878157616,0.001087790820747614,0.0008462402038276196,-26.37598419189453,39.03478240966797,8.847633361816406,2
3.5182954166666605,3.518296249996638,3.5109689166711178,6.0556456446647644e-05,-0.0022968053817749023,-0.0005942578427493572,0.0015979467425495386,-0.0011756299063563347,-0.00037055835127830505,-26.57848358154297,39.48647689819336,9.290481567382812,2
3.52826458333584,3.5282655416667694,3.5209382500033826,-6.700679659843445e-05,-0.0010151863098144531,0.0001094345934689045,-6.139138713479042e-05,-0.0010858061723411083,0.0020130211487412453,-26.64891815185547,39.417320251464844,9.358856201171875,2
3.5384205000009388,3.5384210416668793,3.5310937916729017,6.402097642421722e-05,-0.0018695592880249023,0.0005535483360290527,-0.0012153391726315022,0.0012958585284650326,-1.3378448784351349e-05,-26.409652709960938,39.285640716552734,9.395439147949219,2
3.54834262499935,3.548342916663387,3.5410157083388185,7.078982889652252e-05,-0.001564323902130127,0.00047200964763760567,0.0020584941376000643,-0.0021199509501457214,0.0019913329742848873,-26.566078186035156,39.490150451660156,9.0206298828125,2
3.5584136249963194,3.558413999999175,3.5510867500051972,0.0004413556307554245,-0.0013814568519592285,0.0007901792414486408,-8.961139246821404e-05,-0.0010797204449772835,-0.0005914010107517242,-26.555931091308594,39.18077087402344,9.408058166503906,2
3.5685163750022184,3.5685166666662553,3.5611894166722777,0.0005311034619808197,-0.001244187355041504,0.00043845223262906075,-1.8086284399032593e-05,1.8984545022249222e-05,0.00029250048100948334,-26.561019897460938,38.97865676879883,9.436599731445312,2
3.5788209166639717,3.5788216666696826,3.571494416668429,-0.00031906552612781525,-0.0015950202941894531,-4.684925079345703e-05,-0.0010372777469456196,0.00046533066779375076,-0.0002955254167318344,-26.37078857421875,39.03860092163086,9.253982543945312,2
3.5887948750023497,3.5887954166682903,3.581468208336446,6.977654993534088e-05,-0.0025409460067749023,0.0005356073379516602,0.00020583486184477806,-0.002613211050629616,0.0007245643064379692,-26.558380126953125,39.20456314086914,9.248588562011719,2
3.5987967916662456,3.598797624996223,3.591470333340112,0.0005188193172216415,-0.0018697381019592285,0.0006998777389526367,0.0015081206802278757,0.0009309235028922558,-0.0015782713890075684,-26.39752960205078,39.24614334106445,9.111282348632812,2
3.6089831666686223,3.608983749996696,3.6016564583405852,0.0010076165199279785,-0.00258713960647583,0.0007258658297359943,0.000783364987000823,-0.0011377702467143536,0.0006301859393715858,-26.582122802734375,39.2679443359375,9.214744567871094,2
3.619081874996482,3.6190829166662297,3.6117555833334336,-0.0003248564898967743,-0.001732945442199707,0.00048416899517178535,0.0026478441432118416,0.0016931700520217419,-0.0008350852876901627,-26.48786163330078,39.25249099731445,9.281600952148438,2
3.6292777083363035,3.6292783333337866,3.621951083339809,0.00016992352902889252,-0.0018396973609924316,-0.0007560849189758301,-0.0030179573222994804,-0.0002897772938013077,0.0006318525411188602,-26.466087341308594,39.17264175415039,9.107963562011719,2
3.6393821666642907,3.6393833333349903,3.632056000002194,0.00026721321046352386,-0.0015195012092590332,0.0007307534106075764,-0.0004980741068720818,-0.0008549001067876816,-0.0006219642236828804,-26.43267822265625,39.33076095581055,9.210418701171875,2
3.6493333333346527,3.649334125002497,3.64200683333911,0.00012737885117530823,-0.0017331838607788086,-0.0008997912518680096,-0.0018451842479407787,-0.0032088973093777895,-0.0008618282154202461,-26.23822021484375,39.37616729736328,9.290061950683594,2
3.6592944166695816,3.6592951666680165,3.651967958336172,0.0006362982094287872,-0.0011532902717590332,-0.00012296438217163086,0.0015921578742563725,0.0010431059636175632,0.0010103746317327023,-26.316261291503906,39.52700424194336,9.639915466308594,2
3.669365125002514,3.6693658333315398,3.662038583337562,-0.00025933608412742615,-0.001458287239074707,-5.7816971093416214e-05,0.0006482764147222042,-0.0002798386849462986,0.0006897905841469765,-26.106529235839844,39.22801208496094,9.7667236328125,2
3.6796717083343538,3.6796724583327887,3.6723452500009444,0.00018882378935813904,-0.0019006729125976562,1.9491184502840042e-05,-0.00012910040095448494,0.0013145958073437214,0.0008778097108006477,-26.27898406982422,39.290794372558594,9.448875427246094,2
3.6895997083338443,3.689600291669194,3.6822730416679406,0.0005369819700717926,-0.0018857121467590332,0.00012546777725219727,0.0005254559218883514,0.002675016410648823,-0.002758622169494629,-26.293701171875,39.32213592529297,9.341499328613281,2
3.699755041663593,3.6997561666648835,3.692428916670906,0.0008104667067527771,-0.0009095072746276855,0.0003383159637451172,-0.0003078472800552845,-0.00044700736179947853,-0.0011298330500721931,-26.330589294433594,39.217472076416016,8.931785583496094,2
3.710155749999103,3.7101565833363566,3.702829333335103,0.00042819418013095856,-0.002145826816558838,0.00042438507080078125,0.0006172393914312124,0.0012282719835639,-0.0008736914023756981,-26.16705322265625,39.303916931152344,9.095420837402344,2
3.719795791665092,3.7197970833294676,3.7124697500039474,0.000425754114985466,-0.0017186999320983887,0.00024366378784179688,-0.00020301435142755508,-0.001962461043149233,0.0001934370957314968,-26.38556671142578,39.197662353515625,8.85736083984375,2
3.7299583749991143,3.729959249998501,3.722631916672981,5.0088390707969666e-05,-0.0023747682571411133,-0.00021058367565274239,0.0014252704568207264,-0.0011556223034858704,0.0021370253525674343,-26.419052124023438,39.05842208862305,9.295394897460938,2
3.740162166664959,3.7401631666652975,3.7328358750019106,0.0005146916955709457,-0.0010778307914733887,-0.0009938478469848633,0.002439135918393731,-0.0009407051838934422,-0.0005658166483044624,-26.3768310546875,39.13841247558594,9.307083129882812,2
3.750204833333555,3.7502061249979306,3.7428787916724104,0.0003582816570997238,-0.0010470151901245117,-0.00029015541076660156,0.0037236586213111877,0.0018310449086129665,0.0027051237411797047,-26.257156372070312,39.171382904052734,9.3292236328125,2
3.760128291665751,3.7601289583326434,3.752801625007123,-0.0003790576010942459,-0.00231325626373291,0.0007995367050170898,-0.0003088996745646,0.0005705705843865871,0.0019655642099678516,-26.43622589111328,38.93170928955078,9.244987487792969,2
3.7702358333335724,3.770236708332959,3.7629093333380297,-0.0003370773047208786,-0.0025876760482788086,0.00011473940685391426,0.000439702533185482,0.0013267286121845245,0.0020017120987176895,-26.56940460205078,39.158348083496094,9.334548950195312,2
3.7803194583320874,3.780320500001835,3.772993166669039,0.0006703324615955353,-0.0011380314826965332,-0.0003368258476257324,0.0007454336155205965,2.9769260436296463e-05,0.0008879783563315868,-26.5487060546875,38.97947692871094,9.259490966796875,2
3.7903680416638963,3.7903688750011497,3.783041625007172,-0.0001931898295879364,-0.0009093284606933594,-0.00030046701431274414,-0.0003111804835498333,-0.0011903168633580208,-0.00238666869699955,-26.397140502929688,39.06472396850586,9.182380676269531,2
3.800408333336236,3.800409416668117,3.7930822083362727,0.0006344020366668701,-0.0012754201889038086,0.0003046989440917969,0.0002550077624619007,0.0005585807375609875,0.0009931488893926144,-26.251617431640625,38.992095947265625,9.482681274414062,2
3.8104011666655424,3.8104014999989886,3.8030742916671443,0.0011136531829833984,-0.0013667941093444824,0.0007261037826538086,-0.0004037856124341488,-0.00021059205755591393,0.00011363346129655838,-26.20642852783203,39.03356170654297,9.309638977050781,2
3.82056241666578,3.8205628333307686,3.813235583336791,0.00022551417350769043,-0.0019162893295288086,0.0004957914352416992,6.519723683595657e-05,-0.0013421690091490746,-0.0006365785375237465,-26.489158630371094,39.186004638671875,9.330032348632812,2
3.830801458330825,3.83080220832926,3.8234749583352823,0.00024136342108249664,-0.0012451410293579102,-0.00017392635345458984,-0.0005980632267892361,9.705312550067902e-05,-0.0010444549843668938,-26.307785034179688,39.11493682861328,9.33575439453125,2
3.840867041668389,3.840867624996463,3.8335403750024852,0.0002675764262676239,-0.0024048686027526855,-0.00024884939193725586,0.000967076513916254,-0.0019810115918517113,0.000825083814561367,-26.426658630371094,38.9981803894043,9.3526611328125,2
3.8508172083311365,3.8508177083349437,3.843490416671557,-0.00019854865968227386,-0.0009704828262329102,0.0004652743227779865,-0.0005432646721601486,0.00017127394676208496,-0.00013919919729232788,-26.343048095703125,39.03695297241211,9.151435852050781,2
3.860988541666302,3.8609898750000866,3.853662500005157,-1.891516149044037e-05,-0.0014279484748840332,-0.00028496934100985527,0.0018429274205118418,-4.896940663456917e-05,-0.000331745482981205,-26.3824462890625,39.201847076416016,8.880462646484375,2
3.8711673750003683,3.871168375000707,3.8638410416679108,0.0005332361906766891,-0.0017027854919433594,-0.00017642974853515625,-4.8961490392684937e-05,0.00022135954350233078,-0.001641763374209404,-26.401344299316406,39.05276107788086,9.176872253417969,2
3.881221916664799,3.881223083335499,3.873895791672112,-2.4342909455299377e-05,-0.001046895980834961,-0.0003421311266720295,-0.0010646912269294262,0.0004405379295349121,0.0008719945326447487,-26.308990478515625,39.078453063964844,9.05462646484375,2
3.8912017499969807,3.8912029166676803,3.883875583334884,8.55717808008194e-05,-0.0017948150634765625,-0.00027871178463101387,0.0013634022325277328,3.2992567867040634e-05,-0.0003689303994178772,-26.432823181152344,39.207481384277344,8.940292358398438,2
3.9011577916680835,3.901158166663663,3.893830875000276,-0.000317990779876709,-0.0019475221633911133,-0.00037741661071777344,-0.0011306479573249817,0.001473229844123125,0.002031909301877022,-26.598739624023438,39.12218475341797,9.190879821777344,2
3.9113314999995055,3.9113327083323384,3.9040054166689515,0.0005184058099985123,-0.0014132261276245117,-0.00018912553787231445,-0.001655135303735733,-0.0001164022833108902,0.000909085851162672,-26.448165893554688,38.90808868408203,9.181320190429688,2
3.9214420416683424,3.9214430833308143,3.9141157916674274,-0.00016959570348262787,-0.0014745593070983887,0.0007952451705932617,0.0008660790044814348,-0.003005399601534009,-0.0023050829768180847,-26.492263793945312,39.153053283691406,9.0880126953125,2
3.9312628749976284,3.9312632083310746,3.923935958337097,0.0004496108740568161,-0.001978278160095215,0.0006946921348571777,-0.00038459664210677147,0.0003641587682068348,-0.00031611882150173187,-26.385276794433594,38.8497428894043,8.914085388183594,2
3.9413844583323225,3.941385416663252,3.9340582083386835,6.978213787078857e-05,-0.0012610554695129395,-0.00010281754657626152,0.0033675311133265495,-0.0001703375019133091,0.0017001600936055183,-26.28899383544922,38.71368408203125,9.166427612304688,2
3.9514229583292035,3.9514234166636015,3.944096166669624,2.6540830731391907e-05,-0.0007113218307495117,1.5914440155029297e-05,-0.003162490203976631,0.002714663278311491,-0.00031218957155942917,-26.453590393066406,38.83711624145508,9.300987243652344,2
3.9619138749985723,3.961914624997007,3.9545873750030296,0.000838620588183403,-0.0015353560447692871,0.00041735172271728516,-0.0012615257874131203,5.443161353468895e-05,-0.0010725222527980804,-26.604576110839844,38.96455383300781,9.472145080566406,2
3.9717992916630465,3.9717997916668537,3.964472541672876,-9.061768651008606e-06,-0.0014747381210327148,0.0007489919662475586,0.0007511712610721588,-0.002746189944446087,-0.0018971599638462067,-26.470138549804688,39.12866973876953,9.480949401855469,2
3.9818680833341205,3.9818685833306517,3.974541333336674,9.723193943500519e-05,-0.0015662312507629395,0.00039565563201904297,0.0038167359307408333,-0.00014321645721793175,0.001458955928683281,-26.62909698486328,38.94781494140625,9.243812561035156,2
3.992064999998547,3.9920662916629226,3.9847389583374024,-0.00011513195931911469,-0.0012303590774536133,0.0003218650817871094,0.0008654780685901642,0.0007022391073405743,0.0013823937624692917,-26.416915893554688,39.09429168701172,9.1951904296875,2
4.00209308333433,4.00209837500006,3.9947710416672635,0.00048825517296791077,-0.0015200972557067871,-0.00024336576461791992,-0.0013657184317708015,0.0009272764436900616,0.001077728345990181,-26.211654663085938,38.8648796081543,9.245185852050781,2
4.014114749996224,4.014115541664069,4.006788166669139,0.0009743012487888336,-0.0016879439353942871,-0.00030797719955444336,0.0010840254835784435,-0.0008479026146233082,-0.001082373782992363,-26.25562286376953,38.93819808959961,9.397445678710938,2
4.022147625000798,4.022148500000185,4.014821208336798,0.00015426427125930786,-0.0020389556884765625,-0.0005478267557919025,-0.0005471608601510525,0.0003180289641022682,-0.0003422815352678299,-26.455841064453125,39.171775817871094,9.35321044921875,2
4.032434041662782,4.032435708330013,4.025108333335083,0.0002830270677804947,-0.0022679567337036133,-0.0004693870432674885,0.0013463429640978575,0.00044563040137290955,0.00017865048721432686,-26.393226623535156,39.214229583740234,9.662132263183594,2
4.042384166663396,4.042385374996229,4.035058041670709,-0.000486910343170166,-0.0017337203025817871,-0.00018489360809326172,-0.0007085520774126053,0.0007300558499991894,0.00022525573149323463,-26.369552612304688,39.317195892333984,9.433433532714844,2
4.052458500002103,4.0524591249995865,4.0451318333362,-9.2310830950737e-05,-0.0012760758399963379,-0.000523984432220459,0.0002473490312695503,-0.0012257969938218594,-0.0003792569041252136,-26.65886688232422,39.463741302490234,9.302192687988281,2
4.062362750002649,4.062364208330109,4.055036916666722,0.0008446332067251205,-0.0020696520805358887,-0.00033456040546298027,0.0006047454662621021,-0.00013070553541183472,-0.001006697304546833,-26.51422119140625,39.278690338134766,9.546432495117188,2
4.072417458330165,4.072422375000315,4.065095125006337,-0.00018399395048618317,-0.0012916326522827148,0.000562847126275301,-0.0015477584674954414,0.000565722119063139,0.0005585229955613613,-26.541915893554688,39.271793365478516,9.5706787109375,2
4.082354791666148,4.082355041668052,4.0750278333362076,1.2809410691261292e-05,-0.0021916627883911133,0.0004807715304195881,-0.00019540544599294662,-0.0007075350731611252,0.0011888928711414337,-26.599990844726562,39.15597915649414,8.994224548339844,2
4.092709333330276,4.092714124999475,4.085386875005497,-0.0005013607442378998,-0.0019780397415161133,-0.000512897502630949,0.00021278206259012222,-0.00069764768704772,-0.0017651980742812157,-26.51203155517578,39.23746871948242,9.038650512695312,2
4.102733499996248,4.102733874999103,4.0954066250051255,-0.0005203355103731155,-0.0015355944633483887,-0.0003154277801513672,0.0023598226252943277,-0.0018875482492148876,0.00048810243606567383,-26.415504455566406,39.0106315612793,9.188011169433594,2
4.113066458332469,4.113067250000313,4.105740000006335,-0.00010934099555015564,-0.0020391345024108887,0.000614821445196867,0.002518403809517622,0.0012281760573387146,-0.0010215947404503822,-26.485008239746094,38.923213958740234,9.500465393066406,2
4.1229200000016135,4.122920708330639,4.115593375005119,-9.399093687534332e-05,-0.0007877349853515625,0.0003508920781314373,0.0012475433759391308,0.00027476437389850616,0.00019600288942456245,-26.503036499023438,39.10795211791992,9.322036743164062,2
4.133169624998118,4.133170374996553,4.125843083340442,6.594322621822357e-05,-0.0014892816543579102,-0.0007446403615176678,-0.003583015874028206,0.0007294635288417339,0.0011143404990434647,-26.687240600585938,38.94758224487305,9.253852844238281,2
4.143259458331158,4.14326075000281,4.135933458339423,0.00028018467128276825,-0.002603292465209961,-0.00022602127864956856,0.00026605091989040375,-0.0012532598339021206,0.00019395211711525917,-26.41468048095703,38.802886962890625,9.268722534179688,2
4.1531540416690405,4.153154749998066,4.145827458334679,6.934627890586853e-05,-0.00223696231842041,0.00037401868030428886,0.003836788237094879,-0.0005833073519170284,0.00030083395540714264,-26.504783630371094,39.18882369995117,9.518829345703125,2
4.163332249998348,4.163333458331181,4.156006208337203,0.00021236203610897064,-0.001580953598022461,-0.0007691388018429279,-1.0946765542030334e-05,0.0026577599346637726,-0.0004123607650399208,-26.606918334960938,39.0545539855957,9.30462646484375,2
4.173246250000375,4.173246916667267,4.165919583334471,-0.00043590739369392395,-0.0022826194763183594,-0.0006377105601131916,0.0010204280260950327,0.0019715712405741215,0.0015348531305789948,-26.440887451171875,39.232608795166016,9.316513061523438,2
4.183532291666779,4.183532875002129,4.176205625000875,-0.0005232933908700943,-0.002862274646759033,0.0003159046173095703,0.0012465303298085928,-0.0022588600404560566,0.0014597522094845772,-26.421546936035156,39.200321197509766,9.468505859375,2
4.193569249997381,4.193570208335586,4.1862429166721995,-2.8701499104499817e-05,-0.0019009113311767578,0.0004379148595035076,-0.001005859114229679,0.00018928246572613716,-0.0019346494227647781,-26.414772033691406,39.20050048828125,9.31195068359375,2
4.203485708334483,4.203486291662557,4.196159083337989,4.66369092464447e-05,-0.0018859505653381348,-0.0002950429916381836,0.0013515709433704615,0.0010588043369352818,-0.0007338300347328186,-26.493316650390625,39.126712799072266,9.279945373535156,2
4.213478708334151,4.2134791249991395,4.206151875005162,0.000655096024274826,-0.00217592716217041,0.0003809928894042969,-0.0006235698238015175,-0.00018118834123015404,-0.0002237008884549141,-26.467872619628906,39.18675231933594,9.433601379394531,2
4.223761208333599,4.223762125002395,4.216434875001141,0.0005408208817243576,-0.0019927024841308594,0.0006191730499267578,-0.0008629881776869297,-0.001228076871484518,0.00033263349905610085,-26.474952697753906,39.04863739013672,9.295860290527344,2
4.233903125001234,4.2339043749962,4.226577125002223,0.0003923363983631134,-0.001321256160736084,0.0006377100944519043,0.0010475663002580404,-0.0008376236073672771,0.0020055887289345264,-26.30303192138672,39.294944763183594,9.333900451660156,2
4.243964083332685,4.243964916662662,4.236637625006551,0.0006746593862771988,-0.001657247543334961,0.0003762845881283283,0.001155956881120801,0.002055900637060404,0.00034297723323106766,-26.752174377441406,39.219242095947266,9.188339233398438,2
4.253847333333397,4.2538482083327835,4.246520916669397,4.9250200390815735e-05,-0.0017032623291015625,-0.00015860749408602715,-0.0014331396669149399,0.0005737398751080036,-0.0014544138684868813,-26.592880249023438,39.31985855102539,9.058578491210938,2
4.264262958335166,4.264264416662627,4.2569370416676975,0.0003964826464653015,-0.0021154284477233887,-0.0005282158963382244,-0.0010448507964611053,0.0016336780972778797,-0.0011596018448472023,-26.51453399658203,39.09142303466797,9.268898010253906,2
4.274235583332484,4.274236708333774,4.266909416670387,0.0006506387144327164,-0.0014597773551940918,-0.0003691907040774822,-0.0005311239510774612,-0.0009163809008896351,-0.000861847773194313,-26.502891540527344,39.05580520629883,8.904777526855469,2
4.284274749996257,4.284275375001016,4.2769481250070385,-9.67271625995636e-06,-0.000880122184753418,-0.0009583230130374432,-0.0030179833993315697,0.00015687290579080582,-0.00048101600259542465,-26.566917419433594,39.246368408203125,9.101142883300781,2
4.294325208335067,4.294326458330033,4.286999125004513,0.0007504727691411972,-0.0013227462768554688,-0.00040018511936068535,-1.9850675016641617e-05,-0.0011653751134872437,0.0017871614545583725,-26.619789123535156,39.15785598754883,9.185188293457031,2
4.304244124999968,4.30424483333627,4.296917500003474,0.0007550008594989777,-0.001490175724029541,6.43143430352211e-05,-0.002298983745276928,-0.002202143892645836,0.0009527928195893764,-26.503433227539062,39.321632385253906,9.394332885742188,2
4.3145102499984205,4.31451141666912,4.307184125005733,0.0005218572914600372,-0.0015055537223815918,-0.00045150425285100937,0.00048058293759822845,-0.0009291763417422771,0.0006414763629436493,-26.28856658935547,39.34103012084961,8.819236755371094,2
4.324581125001714,4.324582333334547,4.317255000001751,0.00010130554437637329,-0.0018868446350097656,0.00029975222423672676,-0.0016169226728379726,-0.0020682101603597403,0.003096111584454775,-26.525794982910156,39.298500061035156,9.190628051757812,2
4.334487916668877,4.3344889166692155,4.327161666667962,5.913339555263519e-05,-0.0014598369598388672,1.2994278222322464e-05,0.0008652620017528534,0.0017524021677672863,-0.003192516975104809,-26.407943725585938,39.266658782958984,9.480140686035156,2
4.344691874997807,4.344693250001001,4.337366000007023,-0.0003556106239557266,-0.0014296770095825195,0.0009819869883358479,-0.0005757743492722511,-0.0004436406306922436,-0.0013938182964920998,-26.448707580566406,39.093780517578125,9.572929382324219,2
4.354541916669405,4.354542291664984,4.3472150416710065,-0.00045471638441085815,-0.0008038878440856934,0.0008995537646114826,0.0032145706936717033,-0.0022537175100296736,0.0015567457303404808,-26.71086883544922,39.23347854614258,9.405548095703125,2
4.364921416665311,4.364922250002564,4.357595000001311,0.0003493167459964752,-0.0019481182098388672,0.0010954136960208416,-0.002321342471987009,-0.0004217289388179779,0.0007988098077476025,-26.24761199951172,39.333560943603516,9.407928466796875,2
4.374914250001893,4.374914958330919,4.367587708336941,0.00045271217823028564,-0.0026654601097106934,0.0012492532841861248,0.00040873466059565544,0.00011995993554592133,0.0007230187766253948,-26.208709716796875,39.130428314208984,9.592506408691406,2
4.384906999999657,4.384907583335007,4.37758029167162,5.9019774198532104e-05,-0.0015819072723388672,0.0009323358535766602,0.0012686692643910646,-0.0008968347683548927,-0.0003220057114958763,-26.19837188720703,39.320068359375,9.6317138671875,2
4.3950747916678665,4.395076083332242,4.387748791668855,0.0005671977996826172,-0.0013072490692138672,0.0003999467007815838,0.0005274619907140732,-0.0018211370334029198,-0.0007454194128513336,-26.285507202148438,39.01743698120117,9.459342956542969,2
4.405082416662481,4.4050836250025895,4.397756333339203,2.592243254184723e-05,-0.0014598369598388672,0.00022232532501220703,0.0010004392825067043,-0.0016054213047027588,-0.0006948197260499001,-26.353172302246094,38.95043182373047,9.576484680175781,2
4.415291500001331,4.415292833335116,4.407965458340186,-0.0008448846638202667,-0.002009153366088867,4.9472320824861526e-05,0.0008459680248051882,0.0016807010397315025,-0.0009911265224218369,-26.44720458984375,39.14739990234375,9.640068054199219,2
4.425113749995944,4.425114749996283,4.4177874166707625,-0.0015426184982061386,-0.0023601651191711426,1.162337139248848e-05,0.0008262605406343937,-0.0009052283130586147,-0.0029629310593008995,-26.32879638671875,39.41752243041992,9.938606262207031,2
4.435222416665056,4.435223333333852,4.427896000001056,0.00017875619232654572,-0.0016278624534606934,-0.0005508060567080975,-0.0005796491168439388,0.002975835930556059,-0.00022439565509557724,-26.407180786132812,39.34183883666992,9.709144592285156,2
4.445435125002405,4.445436249996419,4.438108916670899,0.0003022346645593643,-0.001704096794128418,0.00037050293758511543,0.0011087951716035604,3.1711533665657043e-05,-0.00030908454209566116,-26.27179718017578,39.35924530029297,9.590927124023438,2
4.4554564583304455,4.455457458330784,4.448130166667397,-0.0005444660782814026,-0.0016885995864868164,-0.0001881117932498455,-0.00030001159757375717,0.00029273703694343567,0.0016744802705943584,-26.407852172851562,39.045692443847656,9.70806884765625,2
4.46542316666455,4.46542429166584,4.458097041671863,0.0005776584148406982,-0.0014442801475524902,-0.0008543133735656738,-0.00021558953449130058,-0.002948862500488758,-0.0002536484971642494,-26.41889190673828,39.19862365722656,9.560935974121094,2
4.475497916668246,4.4754987499982235,4.468171541673655,0.0004637502133846283,-0.002146005630493164,0.00016224337741732597,0.0009982797782868147,0.0014139837585389614,0.0005974988453090191,-26.0751953125,39.234771728515625,9.2120361328125,2
4.485633041666006,4.485633666663489,4.478306416669511,-0.0002156384289264679,-0.0023292899131774902,0.00040918542072176933,0.00013701338320970535,-0.002270499477162957,0.0005165389738976955,-26.175643920898438,39.351078033447266,9.225738525390625,2
4.495859541668324,4.495860166665807,4.488532958333963,1.2252479791641235e-05,-0.002283155918121338,-0.0009041428565979004,-0.0003362060524523258,0.0014161947183310986,-0.0003432268276810646,-26.062698364257812,39.339454650878906,9.182830810546875,2
4.505938583330135,4.5059390000023996,4.498611791670555,-0.0004882197827100754,-0.0015964508056640625,9.071826934814453e-05,0.0015490457881242037,-1.9385479390621185e-06,-4.473142325878143e-06,-26.28942108154297,39.1889762878418,9.257804870605469,2
4.515893374998996,4.515894041665888,4.508566750002501,0.00043066032230854034,-0.0024509429931640625,0.0006371731869876385,-0.0021565286442637444,-0.00017842650413513184,0.001982412301003933,-26.341102600097656,39.3537712097168,9.442070007324219,2
4.526109208331036,4.526110291662917,4.518782958337397,-0.0005635693669319153,-0.0017643570899963379,0.00025141285732388496,-7.899664342403412e-05,0.0014469004236161709,-0.002859747037291527,-26.52404022216797,39.041778564453125,9.295295715332031,2
4.536160208335787,4.536161791664199,4.52883441666927,0.00036735087633132935,-0.0011695623397827148,0.00011599063873291016,0.0003519151359796524,-0.00012998096644878387,0.0002996218390762806,-26.25152587890625,39.12046813964844,8.917953491210938,2
4.54646474999754,4.546466208332276,4.539138875006756,-4.6778470277786255e-05,-0.0014134049415588379,-0.00018459511920809746,0.002177512040361762,-0.0005875122733414173,0.0013023018836975098,-26.415939331054688,39.203250885009766,9.404533386230469,2
4.556179958330176,4.556180666666478,4.548853375003091,0.0010476112365722656,-0.0015354752540588379,-3.105355426669121e-05,-0.0019663944840431213,-0.0018930407240986824,-0.0016240635886788368,-26.27466583251953,39.01654815673828,9.451583862304688,2
4.5663482083327835,4.56635287500103,4.559025583337643,0.0008689258247613907,-0.0019019842147827148,-0.0005051488988101482,-0.002792240586131811,0.0022495058365166187,-0.0024634916335344315,-26.420265197753906,38.9425163269043,9.316802978515625,2
4.576462999997602,4.576464208330435,4.569136875004915,0.00012116134166717529,-0.0012763738632202148,-9.97781753540039e-05,0.003936899360269308,0.0004247496835887432,0.0019743582233786583,-26.364776611328125,39.14435958862305,9.323593139648438,2
4.586509916669456,4.586510624998482,4.579183333335095,0.00019763782620429993,-0.0015510320663452148,-0.0004845256917178631,-0.0003321478143334389,0.0018748403526842594,-0.0003428580239415169,-26.296249389648438,39.13170623779297,9.280746459960938,2
4.596390916667588,4.596391791666974,4.589064541672997,-0.00011136382818222046,-0.0015659928321838379,0.000221968162804842,-0.00017757155001163483,-0.0001329854130744934,0.0006221504881978035,-26.375343322753906,39.00495147705078,9.746223449707031,2
4.6065534583322005,4.6065543750009965,4.599227125007019,0.00019097886979579926,-0.0015811920166015625,-0.00019043637439608574,0.002629666356369853,0.0013056541793048382,-0.0005240738391876221,-26.349105834960938,39.1132926940918,9.668060302734375,2
4.61649700000271,4.616497458329832,4.609170208335854,0.0001823287457227707,-0.0016427040100097656,0.0004443530924618244,0.0007078198250383139,-0.00045864610001444817,-0.003219218924641609,-26.130416870117188,39.15692138671875,9.403030395507812,2
4.626692416662991,4.626692958336207,4.6193657083349535,-0.00017025507986545563,-0.0022230148315429688,0.000613868236541748,-0.0031279311515390873,0.0036072013899683952,-0.0014026761054992676,-26.317138671875,39.1328125,9.485939025878906,2
4.636676416666887,4.636676708330924,4.6293494583369466,-0.00022981129586696625,-0.0017653107643127441,0.0009046201594173908,0.0005587353371083736,-0.0008453521877527237,0.0012924261391162872,-26.346412658691406,39.15214920043945,9.478813171386719,2
4.646825791664014,4.646826333329955,4.639499041673844,0.00035266391932964325,-0.0014752745628356934,-0.0001869802363216877,0.001170197268947959,-5.923677235841751e-06,0.0006948127411305904,-26.456581115722656,39.27336120605469,9.567878723144531,2
4.657139041664777,4.657140333329153,4.64981291667209,-0.00040404684841632843,-0.0026807785034179688,0.0009347796440124512,0.00079163140617311,0.001324106939136982,-0.0013829860836267471,-26.652137756347656,39.17435836791992,9.535118103027344,2
4.667152666668699,4.667153666669037,4.659826333336241,-0.0005679018795490265,-0.0015671849250793457,0.0005204086191952229,0.0007543470710515976,0.0016695186495780945,0.0008889567106962204,-26.452110290527344,39.20048904418945,9.63018798828125,2
4.6774292916670674,4.677430333329539,4.670103000004019,2.4436041712760925e-05,-0.001978933811187744,7.849885150790215e-05,0.00039937393739819527,-0.0011014374904334545,0.0029325224459171295,-26.11023712158203,39.088722229003906,9.567337036132812,2
4.687336750001123,4.687337458330148,4.680010125004628,-0.0006004553288221359,-0.0022836923599243164,0.0010632872581481934,0.0006007086485624313,0.0007555847987532616,0.0010890825651586056,-26.132781982421875,39.187721252441406,9.601165771484375,2
4.697418625000864,4.697420124997734,4.690092833334347,0.0002043992280960083,-0.0016276836395263672,0.0006504654884338379,-0.0010588564909994602,0.000978201162070036,-0.0016468595713376999,-26.27831268310547,39.290462493896484,9.597953796386719,2
4.708089583335095,4.7080907083291095,4.700763375003589,0.00018017366528511047,-0.0014294981956481934,-0.0003720526583492756,-0.002408280037343502,5.7013705372810364e-05,-0.0008950494229793549,-26.282791137695312,39.3390998840332,9.145263671875,2
4.7175606666642125,4.717561791665503,4.710234458339983,-0.00014215894043445587,-0.0008955597877502441,-0.0010862350463867188,-0.0007921205833554268,0.0019824071787297726,0.0005541862919926643,-26.09991455078125,39.22060012817383,9.463310241699219,2
4.727348749998782,4.727349583336036,4.720022333334782,0.000275634229183197,-0.001856684684753418,-0.0001799464225769043,0.0016132467426359653,0.0023736250586807728,0.0012580598704516888,-26.335403442382812,39.30879211425781,9.205360412597656,2
4.737684749998152,4.737686000000394,4.730358750006417,-3.29483300447464e-05,-0.002772212028503418,4.83393669128418e-05,-0.0002885567955672741,0.0005839667282998562,0.0011109830811619759,-26.400474548339844,39.19729995727539,9.86688232421875,2
4.74752516666922,4.747525458333257,4.740198250001413,-9.567476809024811e-05,-0.0031385421752929688,-0.0011698603630065918,-0.002367420122027397,-0.0009058057330548763,-0.0008251350373029709,-26.341819763183594,39.213260650634766,9.412818908691406,2
4.757816625002306,4.757817416662874,4.750490166668897,-0.0002654232084751129,-0.0022082924842834473,-1.627206802368164e-05,0.00028528599068522453,0.00014465255662798882,0.00028019165620207787,-26.56163787841797,39.169742584228516,9.696975708007812,2
4.767803083334002,4.7678036666693515,4.760476416668098,0.0007821787148714066,-0.002070605754852295,-0.0001519322395324707,0.0005593253299593925,0.001424567773938179,-0.0010175667703151703,-26.379104614257812,39.194644927978516,9.597358703613281,2
4.777754499998991,4.777755041664932,4.770427791670954,0.00022759661078453064,-0.0008958578109741211,-0.000376939307898283,0.00020038755610585213,0.0006330539472401142,-0.00018301699310541153,-26.375282287597656,39.0063362121582,9.721206665039062,2
4.787824166669452,4.787824624996574,4.780497333340463,0.00015025213360786438,-0.001536726951599121,-0.0008670683018863201,0.0005324836820363998,0.0005212011747062206,0.0003141951747238636,-26.500534057617188,39.110565185546875,9.487442016601562,2
4.798062791669508,4.798064083333884,4.790736750001088,-0.00013602152466773987,-0.0020862817764282227,-7.909536361694336e-05,-0.0004977704957127571,0.0015326021239161491,-0.000945444218814373,-26.426292419433594,39.41509246826172,9.422019958496094,2
4.80828495832975,4.808289833330491,4.800962541667104,-0.00031923502683639526,-0.0014756321907043457,0.00038951681926846504,-0.0011494457721710205,0.0009565604850649834,0.0011770953424274921,-26.36090850830078,39.2592658996582,9.551666259765625,2
4.818183291667083,4.818183875002433,4.810856583339046,-0.00041965581476688385,-0.0010790228843688965,0.0004406571388244629,0.0015217720065265894,-0.0007823347114026546,0.0014950134791433811,-26.49022674560547,39.3189582824707,9.72442626953125,2
4.828370249997533,4.828375208329817,4.821047833334887,-0.00044462457299232483,-0.001857161521911621,0.000754296313971281,0.0027819799724966288,-0.00018978118896484375,-0.0009399149566888809,-26.39684295654297,39.34627151489258,9.335357666015625,2
4.838281458331039,4.838282166667341,4.830954833334545,0.00015166960656642914,-0.0014145374298095703,5.734013393521309e-05,-0.00038398755714297295,0.00017139920964837074,-0.0017723198980093002,-26.440162658691406,39.15548324584961,9.553482055664062,2
4.8484065833326895,4.848407749996113,4.841080416670593,4.213117063045502e-05,-0.0020249485969543457,0.0003814105875790119,0.00229595135897398,-0.002038491889834404,0.0005512884818017483,-26.508079528808594,39.14508819580078,9.576927185058594,2
4.858451125001011,4.858451958330988,4.851124666667602,-0.0006346870213747025,-0.0013685822486877441,0.0002219080924987793,0.001314161578193307,0.0014663939364254475,-0.0001275390386581421,-26.66411590576172,39.1204833984375,9.020805358886719,2
4.86861020833021,4.868611333331501,4.861284125006932,0.0001814141869544983,-0.001627802848815918,0.0004585385322570801,-0.0009926687926054,-0.0011775922030210495,0.0013100355863571167,-26.55847930908203,39.0299186706543,9.065589904785156,2
4.878523208331899,4.878523666666297,4.8711964583344525,0.0002552177757024765,-0.0010786056518554688,-0.0006936788558959961,0.0003211083821952343,-0.0023965458385646343,-0.0011105071753263474,-26.452423095703125,38.91124725341797,9.223907470703125,2
4.888555916666519,4.8885561666684225,4.881228958336578,0.000643337145447731,-0.001444995403289795,-0.0006648898124694824,0.0025320646818727255,0.00010362965986132622,7.859431207180023e-05,-26.737449645996094,39.07056427001953,9.298049926757812,2
